index,time_us,ax,ay,az
0,1049,2.20506,0.70390,-9.83778
1,2013,1.41497,-0.68953,-9.05008
2,2969,1.59933,0.44532,-9.54089
3,3956,1.73101,-0.14844,-9.32542
4,4956,1.52750,0.33758,-9.73004
5,5956,1.57060,-0.13408,-9.27274
6,6956,2.14760,0.41420,-9.70370
7,7956,1.41018,-0.53630,-9.16022
8,8956,1.22583,0.02873,-9.44991
9,9956,1.71664,-0.08859,-9.49780
10,10956,1.31202,0.29449,-9.54089
11,11956,2.05183,-0.26815,-9.34218
12,12956,0.54109,-0.27533,-9.40682
13,13956,2.74854,0.75178,-9.94791
14,14956,1.37667,-0.56982,-8.74602
15,15956,1.66158,1.48919,-10.11550
16,16956,1.97043,-0.57221,-9.07402
17,17956,1.36709,0.38307,-9.52892
18,18956,1.75016,-0.09337,-9.32781
19,19956,1.51553,-0.01915,-9.48343
20,20956,1.68791,0.39265,-9.48343
21,21956,1.68552,-0.17957,-9.39485
22,22956,1.92254,0.26336,-9.51216
23,23956,1.04627,-0.53870,-9.17698
24,24956,1.57778,0.23463,-9.72046
25,25956,1.34794,-0.21308,-9.21289
26,26956,2.09732,0.69192,-9.81383
27,27956,0.98881,-1.32878,-8.77236
28,28956,1.57538,1.13964,-10.13466
29,29956,2.38462,-0.53151,-9.27274
30,30956,1.12049,0.43574,-9.33020
31,31956,2.19069,1.17316,-10.02931
32,32956,1.69031,-0.84755,-8.99741
33,33956,1.45328,0.53870,-9.55526
34,34956,1.75974,-0.19154,-9.27035
35,35956,1.51792,0.20590,-9.73243
36,36956,1.67834,0.00958,-9.28711
37,37956,2.01113,0.33040,-9.72525
38,38956,1.46286,-0.38068,-9.24401
39,39956,1.11091,-0.07901,-9.40442
40,40956,1.71904,0.01437,-9.61511
41,41956,1.15161,0.03831,-9.36612
42,42956,2.20985,0.24900,-9.54329
43,43956,0.40701,-0.97923,-9.05008
44,44956,2.60489,1.26653,-10.24479
45,45956,1.68073,-0.86431,-8.73884
46,46956,1.44131,1.38624,-10.00297
47,47956,2.13563,-0.16281,-9.26795
48,48956,1.44131,-0.03591,-9.32302
49,49956,1.64242,-0.02394,-9.37569
50,50956,1.50116,-0.03591,-9.41400
51,51956,1.59693,0.43814,-9.59117
52,52956,1.54665,-0.24900,-9.29429
53,53956,2.00395,0.44772,-9.59357
54,54956,1.09415,-0.52672,-9.16022
55,55956,1.36948,0.19154,-9.73722
56,56956,1.45567,-0.18914,-9.25119
57,57956,1.79086,0.71347,-9.89524
58,58956,1.23780,-1.02232,-8.92798
59,59956,1.23780,0.87867,-10.03649
60,60956,2.61207,-0.19872,-9.43555
61,61956,1.17316,0.03352,-9.08121
62,62956,2.09253,1.37667,-10.11550
63,63956,1.75974,-0.86191,-9.00699
64,64956,1.35751,0.57461,-9.63427
65,65956,1.77171,-0.13886,-9.31823
66,66956,1.40300,0.16520,-9.55047
67,67956,1.61848,0.22266,-9.22007
68,68956,1.90100,0.15562,-9.64624
69,69956,1.62566,-0.15562,-9.32542
70,70956,1.01275,-0.15802,-9.31344
71,71956,1.78847,0.11013,-9.68694
72,72956,1.21865,-0.18435,-9.27035
73,73956,2.31519,0.58419,-9.70609
74,74956,0.50996,-1.31681,-8.88488
75,75956,2.29365,1.45567,-10.32140
76,76956,2.00874,-0.96007,-8.82263
77,77956,1.28569,1.07021,-9.74679
78,78956,2.20506,0.31125,-9.56484
79,79956,1.40779,-0.41420,-9.18895
80,80956,1.61609,0.31603,-9.48583
81,81956,1.66158,-0.14844,-9.36372
82,82956,1.60651,0.38068,-9.67736
83,83956,1.51792,-0.15802,-9.21528
84,84956,2.03028,0.49081,-9.66779
85,85956,1.24977,-0.61770,-9.11233
86,86956,1.32160,0.12689,-9.57681
87,87956,1.64482,-0.17957,-9.42358
88,88956,1.54187,0.45729,-9.72046
89,89956,1.75495,-0.65362,-9.09557
90,90956,0.78290,0.19393,-9.68694
91,91956,2.76051,0.23942,-9.80904
92,92956,1.25696,-0.34716,-8.92080
93,93956,1.78129,1.49398,-10.14423
94,94956,1.96564,-0.71826,-9.01656
95,95956,1.47722,0.47405,-9.51456
96,96956,1.83396,-0.21548,-9.37569
97,97956,1.41976,0.02394,-9.56005
98,98956,1.69031,0.32561,-9.36372
99,99956,1.73819,-0.02634,-9.54568
100,100956,1.84114,0.15323,-9.47625
101,101956,1.02951,-0.37828,-9.22007
102,102956,1.71185,0.27294,-9.69412
103,103956,1.26653,-0.26576,-9.25119
104,104956,2.26970,0.74939,-9.94073
105,105956,0.75178,-1.37188,-8.83460
106,106956,1.94888,1.31681,-10.33337
107,107956,2.23379,-0.85234,-9.07881
108,108956,1.16598,0.69192,-9.48104
109,109956,2.23140,0.88107,-9.78031
110,110956,1.59454,-0.77093,-8.97107
111,111956,1.51553,0.47405,-9.55287
112,112956,1.73101,-0.15323,-9.33499
113,113956,1.57060,0.33758,-9.73004
114,114956,1.60172,-0.03352,-9.23683
115,115956,2.03028,0.36871,-9.61272
116,116956,1.33836,-0.50996,-9.15543
117,117956,1.24259,-0.01437,-9.56005
118,118956,1.80523,-0.08859,-9.59596
119,119956,1.35751,0.16759,-9.51695
120,120956,2.20027,-0.09577,-9.40442
121,121956,0.49560,-0.48842,-9.30626
122,122956,2.64559,0.84515,-10.06522
123,123956,1.47004,-0.70868,-8.76038
124,124956,1.60890,1.51314,-10.10114
125,125956,2.06859,-0.38547,-9.13867
126,126956,1.42455,0.25379,-9.44991
127,127956,1.76692,-0.08140,-9.32063
128,128956,1.53947,-0.03591,-9.50977
129,129956,1.66158,0.41659,-9.51216
130,130956,1.63045,-0.21548,-9.41161
131,131956,1.99916,0.38786,-9.59117
132,132956,1.14443,-0.53870,-9.14585
133,133956,1.62087,0.18435,-9.73004
134,134956,1.50116,-0.24660,-9.18416
135,135956,2.00395,0.76614,-9.90002
136,136956,1.05824,-1.24738,-8.78433
137,137956,1.53708,1.06542,-10.07480
138,138956,2.43969,-0.50278,-9.32302
139,139956,1.08697,0.24660,-9.29429
140,140956,2.11169,1.25217,-10.13705
141,141956,1.73101,-0.86431,-9.00938
142,142956,1.41737,0.50757,-9.56723
143,143956,1.80283,-0.20590,-9.27753
144,144956,1.44849,0.18914,-9.62708
145,145956,1.67594,0.10295,-9.22007
146,146956,2.00634,0.29928,-9.67976
147,147956,1.52750,-0.28012,-9.27514
148,148956,1.04148,-0.10534,-9.29669
149,149956,1.72383,0.12450,-9.69173
150,150956,1.16837,-0.00239,-9.34218
151,151956,2.29604,0.33040,-9.58878
152,152956,0.45011,-1.14443,-8.93037
153,153956,2.50912,1.29766,-10.22085
154,154956,1.79805,-0.91698,-8.76038
155,155956,1.37906,1.28569,-9.95270
156,156956,2.17633,0.08619,-9.45470
157,157956,1.39821,-0.15562,-9.25598
158,158956,1.67355,0.16281,-9.44513
159,159956,1.63763,-0.10774,-9.37330
160,160956,1.64003,0.39265,-9.61033
161,161956,1.59933,-0.25618,-9.31823
162,162956,2.04944,0.52433,-9.60793
163,163956,1.17555,-0.55306,-9.09557
164,164956,1.47004,0.15802,-9.68215
165,165956,1.61369,-0.23224,-9.38288
166,166956,1.78847,0.67038,-9.72525
167,167956,1.45807,-1.00317,-8.93756
168,168956,1.06303,0.77572,-9.90481
169,169956,2.62644,-0.12450,-9.64624
170,170956,1.12288,-0.21069,-9.07402
171,171956,1.98719,1.39582,-10.19691
172,172956,1.82678,-0.85234,-8.99262
173,173956,1.35512,0.50278,-9.58638
174,174956,1.86029,-0.24900,-9.30866
175,175956,1.46525,0.12929,-9.54808
176,176956,1.67594,0.20590,-9.29908
177,177956,1.88184,0.06225,-9.63427
178,178956,1.77650,-0.05028,-9.37091
179,179956,1.01514,-0.31603,-9.25119
180,180956,1.71664,0.19632,-9.72525
181,181956,1.16837,-0.23942,-9.30147
182,182956,2.26970,0.64404,-9.77313
183,183956,0.54827,-1.25217,-8.90404
184,184956,2.17394,1.33118,-10.25197
185,185956,2.03268,-0.81882,-8.86812
186,186956,1.24498,0.96486,-9.67736
187,187956,2.20027,0.61292,-9.70849
188,188956,1.49638,-0.50278,-9.18176
189,189956,1.54905,0.29688,-9.48343
190,190956,1.63763,-0.14605,-9.34696
191,191956,1.58736,0.40462,-9.67497
192,192956,1.56102,-0.15323,-9.27514
193,193956,2.06620,0.51954,-9.69891
194,194956,1.22823,-0.56264,-9.11233
195,195956,1.26653,0.06464,-9.57920
196,196956,1.69509,-0.13168,-9.48583
197,197956,1.46765,0.36871,-9.74679
198,198956,1.78368,-0.65362,-9.15782
199,199956,0.67038,0.17957,-9.57441
200,200956,2.75573,0.43335,-9.81144
201,201956,1.29526,-0.47405,-8.83700
202,202956,1.78847,1.45807,-10.22324
203,203956,1.91297,-0.71347,-9.03332
204,204956,1.31681,0.48842,-9.48822
205,205956,1.79326,-0.17717,-9.35654
206,206956,1.44610,0.02873,-9.54808
207,207956,1.64003,0.32801,-9.39006
208,208956,1.71904,-0.10774,-9.56484
209,209956,1.87466,0.19154,-9.39724
210,210956,1.06063,-0.40701,-9.10036
211,211956,1.71664,0.22266,-9.72525
212,212956,1.21147,-0.28012,-9.23444
213,213956,2.13323,0.72544,-9.90242
214,214956,0.74699,-1.33836,-8.86094
215,215956,1.86269,1.27132,-10.21845
216,216956,2.24576,-0.72544,-9.01417
217,217956,1.07021,0.65841,-9.47386
218,218956,2.17154,0.93613,-9.89524
219,219956,1.57538,-0.76854,-9.07881
220,220956,1.50116,0.38786,-9.51456
221,221956,1.68552,-0.21548,-9.25359
222,222956,1.52032,0.37589,-9.68694
223,223956,1.61130,-0.04788,-9.23204
224,224956,2.08296,0.35674,-9.67736
225,225956,1.36469,-0.49560,-9.20810
226,226956,1.23780,0.02634,-9.51695
227,227956,1.68791,-0.08380,-9.50977
228,228956,1.27850,0.18675,-9.48343
229,229956,2.11647,-0.11013,-9.41879
230,230956,0.51954,-0.51475,-9.34696
231,231956,2.71263,0.93374,-10.07241
232,232956,1.40061,-0.70868,-8.73884
233,233956,1.61848,1.51074,-10.11071
234,234956,2.09014,-0.48842,-9.18895
235,235956,1.40061,0.30167,-9.37569
236,236956,1.76453,-0.14126,-9.34936
237,237956,1.56820,-0.04310,-9.44034
238,238956,1.66636,0.37589,-9.45470
239,239956,1.70946,-0.19154,-9.43076
240,240956,1.95367,0.34237,-9.49301
241,241956,1.00796,-0.49081,-9.13148
242,242956,1.57060,0.18435,-9.74679
243,243956,1.32639,-0.24421,-9.29190
244,244956,2.03986,0.84994,-9.93833
245,245956,0.86191,-1.40300,-8.77236
246,246956,1.80523,1.33118,-10.20409
247,247956,2.43969,-0.70390,-9.17219
248,248956,1.10373,0.47645,-9.37809
249,249956,2.24097,1.08697,-10.00058
250,250956,1.53947,-0.85234,-9.00220
251,251956,1.47483,0.52672,-9.59596
252,252956,1.78607,-0.16281,-9.24880
253,253956,1.51553,0.22505,-9.61272
254,254956,1.63285,0.08859,-9.23204
255,255956,2.02789,0.34955,-9.72285
256,256956,1.42455,-0.37110,-9.19613
257,257956,1.07260,0.00479,-9.44991
258,258956,1.71185,-0.02155,-9.59596
259,259956,1.23780,0.08619,-9.37330
260,260956,2.25534,0.22745,-9.43076
261,261956,0.41899,-0.84515,-9.12430
262,262956,2.64320,1.07021,-10.12508
263,263956,1.60412,-0.84755,-8.76038
264,264956,1.47243,1.35033,-9.97664
265,265956,2.06380,-0.22984,-9.28471
266,266956,1.39821,0.09098,-9.45231
267,267956,1.70946,-0.00958,-9.35893
268,268956,1.54187,-0.02634,-9.44752
269,269956,1.69988,0.40941,-9.55287
270,270956,1.65679,-0.22266,-9.38288
271,271956,1.99437,0.45490,-9.61751
272,272956,1.09654,-0.53630,-9.16022
273,273956,1.55144,0.15083,-9.76355
274,274956,1.45807,-0.28491,-9.28711
275,275956,2.00395,0.77572,-9.90481
276,276956,1.08218,-1.24738,-8.73165
277,277956,1.49398,1.05345,-10.05804
278,278956,2.54264,-0.48602,-9.33978
279,279956,1.07021,0.22266,-9.21768
280,280956,2.13323,1.19710,-10.04846
281,281956,1.68312,-0.93134,-8.94234
282,282956,1.42455,0.53870,-9.58878
283,283956,1.74298,-0.22027,-9.27514
284,284956,1.40300,0.17238,-9.64624
285,285956,1.60890,0.17957,-9.23683
286,286956,2.01113,0.25618,-9.69412
287,287956,1.58257,-0.24421,-9.29669
288,288956,1.13006,-0.11492,-9.39485
289,289956,1.71904,0.10534,-9.72046
290,290956,1.11809,-0.03831,-9.35893
291,291956,2.31519,0.36392,-9.61990
292,292956,0.39983,-1.02232,-9.04290
293,293956,2.47800,1.24498,-10.18015
294,294956,1.71904,-0.92895,-8.76996
295,295956,1.38624,1.29047,-9.99340
296,296956,2.17633,0.01676,-9.33978
297,297956,1.40779,-0.11013,-9.26556
298,298956,1.70467,0.06225,-9.46907
299,299956,1.60172,-0.04788,-9.37330
300,300956,1.62566,0.45011,-9.57202
301,301956,1.58496,-0.22266,-9.36612
302,302956,2.05422,0.53391,-9.57441
303,303956,1.13725,-0.53151,-9.06205
304,304956,1.43652,0.15562,-9.71328
305,305956,1.53229,-0.21787,-9.34936
306,306956,1.75256,0.62728,-9.84256
307,307956,1.33596,-1.05584,-9.00938
308,308956,1.14443,0.71108,-10.00537
309,309956,2.68869,-0.13408,-9.60075
310,310956,1.09176,-0.14365,-9.02614
311,311956,2.02549,1.47004,-10.15620
312,312956,1.84114,-0.90501,-8.95192
313,313956,1.35751,0.60094,-9.50977
314,314956,1.81480,-0.23942,-9.28471
315,315956,1.36230,0.07661,-9.65582
316,316956,1.63045,0.23942,-9.34218
317,317956,1.95127,0.14126,-9.72525
318,318956,1.67355,-0.17478,-9.30387
319,319956,1.11091,-0.25618,-9.24880
320,320956,1.77650,0.15323,-9.70609
321,321956,1.17316,-0.08859,-9.36133
322,322956,2.31040,0.53151,-9.74679
323,323956,0.41180,-1.24498,-8.95192
324,324956,2.36308,1.37188,-10.32380
325,325956,1.86029,-0.89064,-8.86573
326,326956,1.37906,1.21386,-9.89763
327,327956,2.22661,0.28730,-9.50977
328,328956,1.38145,-0.34955,-9.22486
329,329956,1.56820,0.21548,-9.48104
330,330956,1.61609,-0.09816,-9.35654
331,331956,1.65679,0.35195,-9.61033
332,332956,1.54665,-0.21069,-9.32063
333,333956,1.98719,0.46208,-9.65103
334,334956,1.15640,-0.50039,-9.19134
335,335956,1.29287,0.15323,-9.74440
336,336956,1.55863,-0.15083,-9.46189
337,337956,1.61609,0.46687,-9.74919
338,338956,1.59214,-0.73023,-8.90164
339,339956,0.94092,0.32561,-9.69412
340,340956,2.73897,0.18675,-9.78510
341,341956,1.18034,-0.32322,-8.99023
342,342956,1.86508,1.49398,-10.19930
343,343956,1.93212,-0.70150,-9.00220
344,344956,1.42216,0.51236,-9.57202
345,345956,1.81480,-0.18435,-9.33739
346,346956,1.46046,0.02873,-9.58878
347,347956,1.70228,0.25857,-9.35415
348,348956,1.87227,0.06225,-9.56723
349,349956,1.80523,0.00479,-9.33739
350,350956,1.05345,-0.34716,-9.28711
351,351956,1.74537,0.20830,-9.71567
352,352956,1.20428,-0.23224,-9.29190
353,353956,2.30322,0.69192,-9.76595
354,354956,0.53391,-1.40300,-8.72686
355,355956,2.22900,1.43892,-10.22564
356,356956,1.99916,-0.98641,-8.85376
357,357956,1.23780,1.01514,-9.76116
358,358956,2.21703,0.48842,-9.65821
359,359956,1.45089,-0.53630,-9.07402
360,360956,1.59454,0.35674,-9.48583
361,361956,1.62806,-0.15562,-9.26077
362,362956,1.55623,0.36152,-9.54329
363,363956,1.58975,-0.19872,-9.23683
364,364956,2.07817,0.49081,-9.71328
365,365956,1.24498,-0.55306,-9.15303
366,366956,1.25696,0.06943,-9.64624
367,367956,1.65439,-0.13886,-9.44513
368,368956,1.53468,0.40701,-9.67257
369,369956,1.78368,-0.50996,-9.14824
370,370956,0.75657,0.05028,-9.64624
371,371956,2.69348,0.39504,-9.82102
372,372956,1.27611,-0.39983,-8.82024
373,373956,1.78368,1.43173,-10.08677
374,374956,1.95127,-0.66559,-9.03332
375,375956,1.37427,0.42138,-9.52413
376,376956,1.75016,-0.27054,-9.31584
377,377956,1.40300,0.03112,-9.57920
378,378956,1.67594,0.33279,-9.41879
379,379956,1.74777,-0.02634,-9.58160
380,380956,1.84114,0.17478,-9.45949
381,381956,1.01514,-0.42138,-9.25359
382,382956,1.77650,0.19154,-9.72525
383,383956,1.25217,-0.26815,-9.26077
384,384956,2.23379,0.66559,-9.92636
385,385956,0.63925,-1.46286,-8.85376
386,386956,2.00874,1.52271,-10.33098
387,387956,2.14760,-0.93134,-8.93037
388,388956,1.13006,0.90022,-9.55287
389,389956,2.26252,0.76854,-9.80904
390,390956,1.47004,-0.67995,-9.03332
391,391956,1.54187,0.41180,-9.47386
392,392956,1.69988,-0.21548,-9.31105
393,393956,1.56820,0.30406,-9.70370
394,394956,1.56102,-0.12929,-9.30866
395,395956,2.08056,0.43096,-9.69412
396,396956,1.32639,-0.52672,-9.16979
397,397956,1.29526,0.09337,-9.56484
398,398956,1.69749,-0.05507,-9.41161
399,399956,1.40779,0.33040,-9.52892
400,400956,1.94409,-0.41420,-9.22486
401,401956,0.62010,-0.05507,-9.46428
402,402956,2.77488,0.50518,-9.83059
403,403956,1.31202,-0.50039,-8.76996
404,404956,1.76692,1.51074,-10.17296
405,405956,1.92973,-0.59616,-9.05008
406,406956,1.36709,0.43335,-9.47146
407,407956,1.74537,-0.18914,-9.31823
408,408956,1.45328,0.06943,-9.52892
409,409956,1.64960,0.35913,-9.35415
410,410956,1.73101,-0.10295,-9.50019
411,411956,1.83156,0.26576,-9.48104
412,412956,0.95529,-0.42138,-9.20331
413,413956,1.66158,0.23703,-9.77074
414,414956,1.24498,-0.22505,-9.26317
415,415956,2.19069,0.73741,-9.85932
416,416956,0.77333,-1.29766,-8.80348
417,417956,1.85311,1.25696,-10.20648
418,418956,2.20027,-0.75417,-9.06684
419,419956,1.09176,0.61770,-9.44752
420,420956,2.23858,0.94332,-9.86651
421,421956,1.53468,-0.72784,-9.07642
422,422956,1.52750,0.44772,-9.60075
423,423956,1.76213,-0.17957,-9.28950
424,424956,1.53947,0.28491,-9.68455
425,425956,1.59693,-0.05507,-9.23922
426,426956,2.01352,0.39744,-9.67497
427,427956,1.35512,-0.48842,-9.16740
428,428956,1.20428,0.00239,-9.58399
429,429956,1.67115,-0.05028,-9.59596
430,430956,1.37427,0.29688,-9.56484
431,431956,2.02549,-0.26576,-9.34696
432,432956,0.52672,-0.28252,-9.43316
433,433956,2.74854,0.66080,-9.97903
434,434956,1.37188,-0.62968,-8.85615
435,435956,1.71185,1.45328,-10.25915
436,436956,1.96803,-0.57461,-9.11712
437,437956,1.34794,0.37828,-9.45231
438,438956,1.70228,-0.12210,-9.34457
439,439956,1.47483,-0.02873,-9.48822
440,440956,1.69509,0.34716,-9.41879
441,441956,1.69270,-0.19393,-9.43794
442,442956,1.86987,0.27773,-9.50737
443,443956,0.99359,-0.46926,-9.18655
444,444956,1.63524,0.23224,-9.72764
445,445956,1.18992,-0.27773,-9.24880
446,446956,2.09014,0.68474,-9.91199
447,447956,0.82600,-1.27850,-8.80109
448,448956,1.80523,1.26174,-10.22085
449,449956,2.32716,-0.70150,-9.14106
450,450956,1.12527,0.51475,-9.44513
451,451956,2.24576,1.02951,-9.92875
452,452956,1.57778,-0.80924,-8.95192
453,453956,1.46765,0.50518,-9.56723
454,454956,1.69270,-0.21308,-9.29669
455,455956,1.56581,0.28252,-9.67736
456,456956,1.57060,-0.06464,-9.22246
457,457956,2.05901,0.32561,-9.63906
458,458956,1.36469,-0.48123,-9.12191
459,459956,1.17316,-0.00958,-9.40921
460,460956,1.73340,-0.03831,-9.52892
461,461956,1.24977,0.16759,-9.55526
462,462956,2.13563,-0.06464,-9.44513
463,463956,0.51954,-0.55785,-9.32063
464,464956,2.72460,0.95529,-10.06283
465,465956,1.44849,-0.77812,-8.71250
466,466956,1.62566,1.46765,-10.03410
467,467956,2.13084,-0.42138,-9.13627
468,468956,1.37427,0.31125,-9.42597
469,469956,1.69509,-0.09816,-9.33739
470,470956,1.48441,-0.08859,-9.48343
471,471956,1.66636,0.37350,-9.45710
472,472956,1.68791,-0.16281,-9.36372
473,473956,1.95367,0.35195,-9.41400
474,474956,1.00078,-0.45490,-9.13388
475,475956,1.57778,0.21308,-9.71088
476,476956,1.33596,-0.29209,-9.27274
477,477956,2.02789,0.78051,-9.97185
478,478956,0.87867,-1.47722,-8.76038
479,479956,1.77171,1.30723,-10.22564
480,480956,2.37505,-0.77333,-9.14346
481,481956,1.11809,0.52194,-9.29429
482,482956,2.26970,1.07978,-9.88326
483,483956,1.64960,-0.75417,-8.93037
484,484956,1.52032,0.54588,-9.52653
485,485956,1.75016,-0.15083,-9.25838
486,486956,1.52271,0.28012,-9.65582
487,487956,1.59693,0.09098,-9.25119
488,488956,2.06380,0.30885,-9.72764
489,489956,1.35991,-0.40701,-9.23922
490,490956,1.09654,-0.00479,-9.39724
491,491956,1.67115,0.02394,-9.61751
492,492956,1.28569,0.15562,-9.45949
493,493956,2.22421,0.06225,-9.46907
494,494956,0.40462,-0.80924,-9.19852
495,495956,2.66714,1.04387,-10.04846
496,496956,1.58496,-0.77812,-8.76038
497,497956,1.60651,1.40779,-10.05086
498,498956,2.11647,-0.28970,-9.17698
499,499956,1.35272,0.17957,-9.41879
500,500956,1.68312,-0.01915,-9.40442
501,501956,1.55623,-0.04788,-9.45231
502,502956,1.73580,0.40701,-9.55526
503,503956,1.69031,-0.22266,-9.44273
504,504956,2.03747,0.35434,-9.58399
505,505956,1.05824,-0.55785,-9.08121
506,506956,1.49877,0.20830,-9.70131
507,507956,1.35272,-0.28012,-9.26317
508,508956,2.02310,0.71108,-9.94312
509,509956,0.99838,-1.39343,-8.77236
510,510956,1.63763,1.19950,-10.14423
511,511956,2.49236,-0.60573,-9.29429
512,512956,1.13964,0.30646,-9.30866
513,513956,2.19309,1.20668,-9.97424
514,514956,1.66636,-0.85234,-8.91361
515,515956,1.46525,0.54348,-9.56962
516,516956,1.82438,-0.21308,-9.30147
517,517956,1.48680,0.22745,-9.71088
518,518956,1.62566,0.15562,-9.29669
519,519956,2.02549,0.30406,-9.68215
520,520956,1.52989,-0.34237,-9.24162
521,521956,1.10612,-0.12929,-9.42118
522,522956,1.68791,-0.02873,-9.68694
523,523956,1.16598,0.07661,-9.35893
524,524956,2.29365,0.28730,-9.56723
525,525956,0.38547,-0.87867,-9.23444
526,526956,2.58574,1.15161,-10.28549
527,527956,1.64482,-0.83797,-8.78672
528,528956,1.49877,1.25456,-9.98382
529,529956,2.18830,-0.04310,-9.26795
530,530956,1.42694,0.08619,-9.24880
531,531956,1.59214,0.05267,-9.36612
532,532956,1.58975,-0.07661,-9.46428
533,533956,1.69270,0.38786,-9.59835
534,534956,1.56581,-0.24181,-9.33978
535,535956,2.02071,0.44772,-9.56723
536,536956,1.07260,-0.56264,-9.07642
537,537956,1.44131,0.22266,-9.68215
538,538956,1.45807,-0.21548,-9.30387
539,539956,1.89142,0.78290,-9.84496
540,540956,1.15879,-1.26893,-8.84179
541,541956,1.40540,1.01993,-10.11550
542,542956,2.53067,-0.36631,-9.38048
543,543956,1.09415,0.19393,-9.19134
544,544956,2.11887,1.36469,-10.13226
545,545956,1.77410,-0.94092,-8.94713
546,546956,1.45089,0.48363,-9.63187
547,547956,1.83396,-0.22266,-9.31344
548,548956,1.45089,0.20590,-9.71088
549,549956,1.64482,0.15083,-9.23444
550,550956,1.95846,0.22984,-9.64863
551,551956,1.54426,-0.20590,-9.30147
552,552956,1.03430,-0.09577,-9.39006
553,553956,1.70228,0.10774,-9.69173
554,554956,1.16119,-0.04549,-9.35893
555,555956,2.27689,0.37110,-9.65103
556,556956,0.38068,-1.03190,-9.03572
557,557956,2.44927,1.21147,-10.23042
558,558956,1.82438,-0.80445,-8.84418
559,559956,1.38145,1.13964,-9.88087
560,560956,2.14042,0.05267,-9.37091
561,561956,1.41976,-0.14605,-9.28471
562,562956,1.61369,0.09337,-9.39964
563,563956,1.60172,-0.10774,-9.35175
564,564956,1.70946,0.43096,-9.58878
565,565956,1.57299,-0.23942,-9.30866
566,566956,2.02071,0.46448,-9.63906
567,567956,1.19710,-0.54588,-9.15782
568,568956,1.38385,0.05986,-9.73961
569,569956,1.44849,-0.22984,-9.36372
570,570956,1.78368,0.69911,-9.89284
571,571956,1.34315,-1.05105,-8.88249
572,572956,1.11570,0.78290,-9.88087
573,573956,2.65756,-0.16041,-9.56723
574,574956,1.10133,-0.15083,-9.03572
575,575956,1.99676,1.50116,-10.08917
576,576956,1.83635,-0.91459,-8.91601
577,577956,1.41018,0.64404,-9.55526
578,578956,1.82438,-0.09337,-9.28471
579,579956,1.43173,0.14365,-9.57202
580,580956,1.60890,0.23224,-9.28471
581,581956,1.87466,0.18914,-9.66779
582,582956,1.66158,-0.19154,-9.25598
583,583956,1.03669,-0.23224,-9.33260
584,584956,1.70467,0.09816,-9.74440
585,585956,1.11570,-0.05267,-9.29190
586,586956,2.35589,0.43335,-9.60075
587,587956,0.44532,-1.18034,-8.88728
588,588956,2.46842,1.27372,-10.14902
589,589956,1.85311,-0.84276,-8.69813
590,590956,1.38864,1.12288,-9.86172
591,591956,2.17154,0.13886,-9.43555
592,592956,1.38385,-0.23463,-9.27993
593,593956,1.58257,0.20111,-9.44752
594,594956,1.58736,-0.01915,-9.36133
595,595956,1.62806,0.47166,-9.67257
596,596956,1.56341,-0.24660,-9.27753
597,597956,2.06859,0.45729,-9.60554
598,598956,1.15879,-0.55067,-9.18416
599,599956,1.37427,0.10534,-9.66060
600,600956,1.52750,-0.16999,-9.39485
601,601956,1.77410,0.59376,-9.82341
602,602956,1.45807,-0.94092,-8.94953
603,603956,1.07978,0.50996,-9.85453
604,604956,2.72700,-0.03831,-9.60314
605,605956,1.14203,-0.17238,-8.95671
606,606956,1.96325,1.41018,-10.06522
607,607956,1.88184,-0.82839,-8.93277
608,608956,1.32399,0.50518,-9.55047
609,609956,1.82199,-0.20111,-9.37330
610,610956,1.43173,0.04070,-9.61511
611,611956,1.61848,0.24181,-9.27514
612,612956,1.90339,0.11492,-9.56723
613,613956,1.72861,-0.13647,-9.29908
614,614956,1.07021,-0.20590,-9.32302
615,615956,1.72622,0.14365,-9.68694
616,616956,1.17316,-0.06225,-9.23683
617,617956,2.30562,0.57221,-9.73004
618,618956,0.44053,-1.21865,-8.94234
619,619956,2.38462,1.26174,-10.20648
620,620956,1.88424,-0.78051,-8.85855
621,621956,1.34315,1.17555,-9.86651
622,622956,2.21224,0.24660,-9.50259
623,623956,1.42934,-0.33758,-9.26077
624,624956,1.66636,0.14365,-9.45949
625,625956,1.56341,-0.13647,-9.27993
626,626956,1.56341,0.38786,-9.66300
627,627956,1.56820,-0.25379,-9.26556
628,628956,2.04465,0.51475,-9.61272
629,629956,1.19710,-0.49081,-9.20331
630,630956,1.35033,0.06704,-9.67976
631,631956,1.62806,-0.14126,-9.45231
632,632956,1.72622,0.53870,-9.80186
633,633956,1.59214,-0.84036,-8.92319
634,634956,0.96726,0.39025,-9.72046
635,635956,2.77249,0.09816,-9.66300
636,636956,1.16358,-0.28012,-8.88488
637,637956,1.91776,1.44849,-10.07001
638,638956,1.90818,-0.84755,-8.91840
639,639956,1.39821,0.54827,-9.64145
640,640956,1.84354,-0.14844,-9.36612
641,641956,1.42216,0.08619,-9.54808
642,642956,1.65200,0.23703,-9.28711
643,643956,1.81002,0.03352,-9.56244
644,644956,1.74777,-0.02873,-9.33499
645,645956,0.98641,-0.29449,-9.28232
646,646956,1.74298,0.13886,-9.77553
647,647956,1.17316,-0.16281,-9.25119
648,648956,2.33914,0.55067,-9.71088
649,649956,0.53151,-1.26893,-8.84179
650,650956,2.27928,1.29047,-10.12029
651,651956,1.98479,-0.87867,-8.80827
652,652956,1.28569,1.03669,-9.79228
653,653956,2.25294,0.47405,-9.65103
654,654956,1.50595,-0.38786,-9.19613
655,655956,1.66397,0.31125,-9.48822
656,656956,1.69509,-0.10295,-9.30387
657,657956,1.57778,0.38307,-9.63427
658,658956,1.49877,-0.16759,-9.25119
659,659956,2.06620,0.53151,-9.71328
660,660956,1.26414,-0.49081,-9.11473
661,661956,1.36469,0.08619,-9.51695
662,662956,1.65918,-0.12689,-9.39245
663,663956,1.54426,0.47884,-9.73004
664,664956,1.68791,-0.72784,-9.04529
665,665956,0.87388,0.35913,-9.74201
666,666956,2.77967,0.28252,-9.79947
667,667956,1.20428,-0.33040,-8.92558
668,668956,1.93212,1.50116,-10.20409
669,669956,1.89381,-0.80445,-8.98544
670,670956,1.36709,0.51715,-9.56723
671,671956,1.81002,-0.21548,-9.30866
672,672956,1.44370,0.00479,-9.52174
673,673956,1.72622,0.28970,-9.33499
674,674956,1.87466,0.02394,-9.57920
675,675956,1.81720,-0.00718,-9.40442
676,676956,1.01754,-0.31364,-9.20331
677,677956,1.70228,0.19872,-9.73243
678,678956,1.17316,-0.18675,-9.21049
679,679956,2.30322,0.66798,-9.83059
680,680956,0.58658,-1.27372,-8.91361
681,681956,2.14760,1.34554,-10.22085
682,682956,2.08774,-0.84994,-8.94953
683,683956,2.08774,-0.84994,-8.94953
684,684956,1.27850,0.92416,-9.66779
685,685956,2.26970,0.63207,-9.70609
686,686956,1.46525,-0.52912,-9.10275
687,687956,1.55384,0.31364,-9.49301
688,688956,1.66158,-0.10774,-9.29908
689,689956,1.58975,0.33040,-9.66779
690,690956,1.59454,-0.18196,-9.30147
691,691956,2.08535,0.48123,-9.69173
692,692956,1.27372,-0.51715,-9.16022
693,693956,1.26653,0.06704,-9.59357
694,694956,1.66876,-0.09816,-9.52413
695,695956,1.52271,0.43335,-9.67976
696,696956,1.80283,-0.51236,-9.12909
697,697956,0.75657,0.16041,-9.61990
698,698956,2.79882,0.42856,-9.80186
699,699956,1.26653,-0.43574,-8.93516
700,700956,1.85790,1.47722,-10.11790
701,701956,1.96803,-0.67516,-8.95431
702,702956,1.33596,0.53151,-9.51695
703,703956,1.76213,-0.15083,-9.27993
704,704956,1.44131,0.01915,-9.58638
705,705956,1.67115,0.27294,-9.45710
706,706956,1.75734,-0.08140,-9.57202
707,707956,1.85072,0.16041,-9.44513
708,708956,1.01035,-0.36392,-9.15303
709,709956,1.66636,0.20111,-9.73243
710,710956,1.19471,-0.26576,-9.23922
711,711956,2.28167,0.68714,-9.88566
712,712956,0.67038,-1.29287,-8.87770
713,713956,2.06859,1.34554,-10.25915
714,714956,2.17872,-0.80685,-8.97826
715,715956,1.19231,0.79248,-9.54089
716,716956,2.27449,0.81642,-9.77313
717,717956,1.51553,-0.68714,-8.95431
718,718956,1.54187,0.40941,-9.56723
719,719956,1.69270,-0.21069,-9.35415
720,720956,1.57538,0.33040,-9.68215
721,721956,1.59933,-0.08380,-9.23922
722,722956,2.06859,0.40223,-9.67976
723,723956,1.34794,-0.49321,-9.12191
724,724956,1.24977,0.05507,-9.51216
725,725956,1.66876,-0.10534,-9.47146
726,726956,1.34554,0.30646,-9.56484
727,727956,1.88663,-0.33279,-9.22486
728,728956,0.60094,-0.12689,-9.49062
729,729956,2.77249,0.60334,-9.86890
730,730956,1.28569,-0.48602,-8.79390
731,731956,1.73819,1.39821,-10.10353
732,732956,1.97522,-0.61292,-9.05727
733,733956,1.42216,0.42138,-9.45710
734,734956,1.83635,-0.10774,-9.24880
735,735956,1.48919,-0.04070,-9.46428
736,736956,1.70228,0.32082,-9.40442
737,737956,1.70946,-0.16999,-9.55765
738,738956,1.91776,0.21069,-9.48822
739,739956,1.03669,-0.41659,-9.17219
740,740956,1.63763,0.23942,-9.73004
741,741956,1.23780,-0.20590,-9.24401
742,742956,2.14042,0.72305,-9.87129
743,743956,0.82600,-1.40061,-8.76278
744,744956,1.85790,1.26414,-10.21127
745,745956,2.26491,-0.75657,-9.12191
746,746956,1.08457,0.56503,-9.44991
747,747956,2.18830,1.00078,-9.89045
748,748956,1.51553,-0.78769,-8.97107
749,749956,1.49877,0.50278,-9.55765
750,750956,1.75974,-0.20111,-9.25598
751,751956,1.53468,0.27773,-9.69173
752,752956,1.66158,-0.04070,-9.21049
753,753956,2.09971,0.37589,-9.67497
754,754956,1.29766,-0.45729,-9.17219
755,755956,1.16598,-0.02155,-9.43076
756,756956,1.67355,-0.02394,-9.54089
757,757956,1.27850,0.21548,-9.54089
758,758956,2.15718,-0.02394,-9.41640
759,759956,0.47884,-0.48842,-9.41879
760,760956,2.70784,0.90501,-10.05325
761,761956,1.46765,-0.69671,-8.80109
762,762956,1.62087,1.40300,-10.14184
763,763956,2.04944,-0.39025,-9.19852
764,764956,1.40300,0.27054,-9.42118
765,765956,1.75974,-0.05267,-9.34218
766,766956,1.53229,0.00479,-9.50259
767,767956,1.68791,0.38547,-9.47625
768,768956,1.68791,-0.18196,-9.46189
769,769956,1.97522,0.29449,-9.49301
770,770956,1.06303,-0.57461,-9.18416
771,771956,1.63763,0.18914,-9.72525
772,772956,1.37188,-0.28012,-9.21528
773,773956,2.06380,0.75657,-9.91678
774,774956,0.82121,-1.29047,-8.81306
775,775956,1.69509,1.20428,-10.29267
776,776956,2.35829,-0.64165,-9.21528
777,777956,1.02711,0.47645,-9.32063
778,778956,2.19309,1.08457,-9.97903
779,779956,1.62327,-0.86431,-8.93516
780,780956,1.43892,0.46448,-9.53611
781,781956,1.74298,-0.21069,-9.24641
782,782956,1.43892,0.26336,-9.60554
783,783956,1.64960,-0.00718,-9.20092
784,784956,2.02789,0.31843,-9.73004
785,785956,1.42455,-0.46208,-9.19134
786,786956,1.20189,-0.08140,-9.45231
787,787956,1.74298,0.00239,-9.63427
788,788956,1.24020,0.10534,-9.50019
789,789956,2.26491,0.17957,-9.59835
790,790956,0.45490,-0.82361,-9.23444
791,791956,2.64320,1.13485,-10.24000
792,792956,1.54426,-0.84276,-8.82742
793,793956,1.49877,1.42455,-10.11550
794,794956,2.09014,-0.27294,-9.21528
795,795956,1.38385,0.16520,-9.36133
796,796956,1.66636,0.00718,-9.34696
797,797956,1.52271,0.01437,-9.43316
798,798956,1.64721,0.48602,-9.51456
799,799956,1.55144,-0.22984,-9.32542
800,800956,1.99198,0.40701,-9.54329
801,801956,1.07739,-0.51715,-9.16740
802,802956,1.50116,0.17957,-9.73961
803,803956,1.39821,-0.22266,-9.26317
804,804956,1.98240,0.72784,-9.87129
805,805956,1.09176,-1.33357,-8.75081
806,806956,1.57538,1.02951,-10.06522
807,807956,2.51870,-0.50039,-9.26795
808,808956,1.10612,0.29449,-9.18416
809,809956,2.15718,1.25456,-9.99340
810,810956,1.73580,-0.85473,-8.90404
811,811956,1.47483,0.54348,-9.50498
812,812956,1.72622,-0.22984,-9.27274
813,813956,1.42216,0.14365,-9.66300
814,814956,1.56820,0.09337,-9.26556
815,815956,1.96325,0.26576,-9.74440
816,816956,1.49877,-0.27773,-9.28232
817,817956,1.06781,-0.11013,-9.40682
818,818956,1.78607,0.01676,-9.63666
819,819956,1.20189,-0.04310,-9.38288
820,820956,2.28167,0.24421,-9.51935
821,821956,0.39983,-1.00078,-9.03093
822,822956,2.54264,1.19231,-10.24479
823,823956,1.71425,-0.89783,-8.81545
824,824956,1.47004,1.30723,-10.00776
825,825956,2.13563,-0.09337,-9.35893
826,826956,1.43652,-0.00239,-9.37809
827,827956,1.67115,0.08380,-9.37091
828,828956,1.59454,-0.06943,-9.30626
829,829956,1.65918,0.36392,-9.52892
830,830956,1.59933,-0.30406,-9.30626
831,831956,2.07817,0.44532,-9.64863
832,832956,1.16358,-0.51236,-9.13388
833,833956,1.43413,0.17478,-9.64624
834,834956,1.51074,-0.17478,-9.34936
835,835956,1.84832,0.71826,-9.87608
836,836956,1.28329,-1.18034,-8.86094
837,837956,1.27372,0.92656,-9.98861
838,838956,2.61447,-0.30167,-9.41400
839,839956,1.11809,0.01197,-9.12191
840,840956,2.01592,1.39343,-10.08677
841,841956,1.75734,-0.83797,-8.91122
842,842956,1.34794,0.56503,-9.62469
843,843956,1.73580,-0.14844,-9.28711
844,844956,1.41258,0.14126,-9.67497
845,845956,1.63524,0.12450,-9.33020
846,846956,1.93451,0.17717,-9.66779
847,847956,1.63045,-0.17478,-9.29908
848,848956,1.00078,-0.15802,-9.32302
849,849956,1.66876,0.14365,-9.77792
850,850956,1.17795,-0.15083,-9.30866
851,851956,2.37265,0.50518,-9.74919
852,852956,0.43335,-1.24020,-8.97586
853,853956,2.44927,1.30245,-10.24000
854,854956,1.91776,-0.85473,-8.83700
855,855956,1.31681,1.14443,-9.90721
856,856956,2.22182,0.25379,-9.52413
857,857956,1.41737,-0.28252,-9.16740
858,858956,1.56341,0.22505,-9.43076
859,859956,1.58496,-0.07661,-9.37330
860,860956,1.70946,0.40941,-9.65342
861,861956,1.64482,-0.24660,-9.35654
862,862956,2.07338,0.44532,-9.68694
863,863956,1.18274,-0.62489,-9.13148
864,864956,1.32639,0.12689,-9.66779
865,865956,1.56341,-0.16041,-9.45949
866,866956,1.67115,0.61531,-9.81383
867,867956,1.60651,-0.84276,-9.05727
868,868956,0.95050,0.47884,-9.82820
869,869956,2.72460,0.16041,-9.68933
870,870956,1.21625,-0.29688,-8.91601
871,871956,1.96325,1.47004,-10.15860
872,872956,1.84832,-0.85234,-9.01417
873,873956,1.36469,0.51954,-9.63187
874,874956,1.82917,-0.32801,-9.37091
875,875956,1.42455,0.01676,-9.67976
876,876956,1.67115,0.26336,-9.34218
877,877956,1.81480,0.08859,-9.53611
878,878956,1.69270,-0.00479,-9.32542
879,879956,0.97444,-0.35434,-9.20571
880,880956,1.76932,0.19632,-9.66060
881,881956,1.21147,-0.18196,-9.20810
882,882956,2.26252,0.71108,-9.83778
883,883956,0.55545,-1.31681,-8.92319
884,884956,2.20745,1.40300,-10.33577
885,885956,2.01831,-0.90501,-8.92319
886,886956,1.24738,1.02951,-9.73482
887,887956,2.26013,0.51475,-9.63906
888,888956,1.43173,-0.50039,-9.14585
889,889956,1.55144,0.35674,-9.53371
890,890956,1.61369,-0.11732,-9.25119
891,891956,1.58736,0.39265,-9.64624
892,892956,1.62087,-0.23703,-9.25119
893,893956,2.12126,0.43814,-9.73243
894,894956,1.24498,-0.51236,-9.18176
895,895956,1.25456,0.07183,-9.59835
896,896956,1.60890,-0.08859,-9.43555
897,897956,1.48680,0.43335,-9.71328
898,898956,1.80523,-0.42138,-9.16740
899,899956,0.68235,-0.02873,-9.59596
900,900956,2.70305,0.51954,-9.85932
901,901956,1.28569,-0.50996,-8.85136
902,902956,1.83396,1.46525,-10.08198
903,903956,1.96325,-0.68714,-9.04769
904,904956,1.40540,0.53151,-9.58160
905,905956,1.82438,-0.11013,-9.38288
906,906956,1.48441,0.01676,-9.60075
907,907956,1.69988,0.33519,-9.45470
908,908956,1.73819,-0.01676,-9.55526
909,909956,1.82917,0.15562,-9.44273
910,910956,1.03908,-0.37350,-9.23922
911,911956,1.67594,0.16041,-9.76355
912,912956,1.15161,-0.25857,-9.24162
913,913956,2.17633,0.70629,-9.93833
914,914956,0.71587,-1.36469,-8.81306
915,915956,1.97043,1.29287,-10.23282
916,916956,2.22661,-0.76614,-9.08360
917,917956,1.15640,0.73023,-9.54808
918,918956,2.24097,0.86670,-9.85693
919,919956,1.49638,-0.66559,-9.03811
920,920956,1.45328,0.44053,-9.61511
921,921956,1.65200,-0.13886,-9.27993
922,922956,1.54426,0.27773,-9.65103
923,923956,1.62806,-0.06464,-9.21528
924,924956,2.04704,0.41659,-9.71806
925,925956,1.31681,-0.45011,-9.22246
926,926956,1.22823,0.06225,-9.55287
927,927956,1.72622,-0.06225,-9.50977
928,928956,1.37667,0.30646,-9.52653
929,929956,2.04704,-0.19632,-9.27035
930,930956,0.51715,-0.31125,-9.37569
931,931956,2.80840,0.79248,-9.99100
932,932956,1.41497,-0.65122,-8.79630
933,933956,1.69749,1.47243,-10.10353
934,934956,2.03028,-0.49081,-9.15303
935,935956,1.39821,0.36871,-9.48343
936,936956,1.78368,-0.08140,-9.27514
937,937956,1.53229,0.03352,-9.50498
938,938956,1.69988,0.37589,-9.55287
939,939956,1.65679,-0.15802,-9.48822
940,940956,1.96085,0.29209,-9.52413
941,941956,1.00796,-0.52433,-9.08600
942,942956,1.52271,0.20351,-9.63906
943,943956,1.29047,-0.28970,-9.20571
944,944956,2.09493,0.80924,-9.91199
945,945956,0.92656,-1.28569,-8.84418
946,946956,1.61609,1.18752,-10.21366
947,947956,2.40378,-0.58897,-9.20092
948,948956,1.08936,0.37110,-9.26795
949,949956,2.22421,1.07739,-9.93833
950,950956,1.64960,-0.85952,-8.95192
951,951956,1.46286,0.57940,-9.63906
952,952956,1.74298,-0.14605,-9.37809
953,953956,1.48441,0.26336,-9.72046
954,954956,1.56102,-0.01197,-9.27274
955,955956,2.03507,0.31843,-9.68215
956,956956,1.43652,-0.36392,-9.20092
957,957956,1.13246,-0.01915,-9.45710
958,958956,1.74298,0.00000,-9.60314
959,959956,1.22823,0.09577,-9.38766
960,960956,2.22421,0.18196,-9.55526
961,961956,0.43096,-0.77333,-9.16022
962,962956,2.63602,1.07500,-10.15141
963,963956,1.56102,-0.80685,-8.80827
964,964956,1.52271,1.35991,-10.05804
965,965956,2.09014,-0.28491,-9.27035
966,966956,1.41737,0.11971,-9.39724
967,967956,1.69031,0.00479,-9.39485
968,968956,1.53468,-0.02873,-9.43316
969,969956,1.69031,0.43574,-9.51695
970,970956,1.58736,-0.21787,-9.34696
971,971956,1.96803,0.45729,-9.60554
972,972956,1.07978,-0.56264,-9.20092
973,973956,1.50116,0.14365,-9.72046
974,974956,1.47483,-0.23224,-9.32542
975,975956,1.98240,0.64165,-9.88087
976,976956,1.14203,-1.11570,-8.82982
977,977956,1.42455,0.90261,-10.02931
978,978956,2.54025,-0.34955,-9.34218
979,979956,1.12527,0.12450,-9.13148
980,980956,2.09253,1.29766,-10.01495
981,981956,1.77889,-0.87867,-8.92319
982,982956,1.44849,0.56024,-9.52653
983,983956,1.77410,-0.16520,-9.21049
984,984956,1.48201,0.14844,-9.67976
985,985956,1.63285,0.16281,-9.26317
986,986956,1.93691,0.28012,-9.67257
987,987956,1.51792,-0.24181,-9.27514
988,988956,1.07739,-0.14126,-9.41161
989,989956,1.73580,0.05028,-9.65821
990,990956,1.15640,-0.04070,-9.31344
991,991956,2.31040,0.31364,-9.57920
992,992956,0.41180,-1.06063,-9.04290
993,993956,2.58095,1.23062,-10.26634
994,994956,1.73340,-0.87867,-8.80827
995,995956,1.41258,1.29287,-9.98143
996,996956,2.21224,-0.01676,-9.39724
997,997956,1.39343,-0.16281,-9.28471
998,998956,1.68073,0.10056,-9.44273
999,999956,1.58736,-0.11013,-9.39006
1000,1000956,1.60412,0.45011,-9.55047
1001,1001956,1.54665,-0.20351,-9.34936
1002,1002956,2.01113,0.43335,-9.56005
1003,1003956,1.17076,-0.51475,-9.07402
1004,1004956,1.43173,0.10534,-9.70131
1005,1005956,1.55144,-0.18914,-9.29908
1006,1006956,1.77889,0.60573,-9.76355
1007,1007956,1.40061,-0.93374,-8.93037
1008,1008956,1.10373,0.70629,-9.95270
1009,1009956,2.65038,-0.04788,-9.59596
1010,1010956,1.11570,-0.10774,-8.99980
1011,1011956,1.98958,1.47483,-10.09395
1012,1012956,1.84832,-0.91698,-8.95192
1013,1013956,1.37667,0.51236,-9.54808
1014,1014956,1.88663,-0.19872,-9.24880
1015,1015956,1.41976,0.07183,-9.59357
1016,1016956,1.61130,0.14365,-9.30387
1017,1017956,1.89381,0.13168,-9.62708
1018,1018956,1.66636,-0.16759,-9.35654
1019,1019956,1.03669,-0.26097,-9.31823
1020,1020956,1.76692,0.12689,-9.71806
1021,1021956,1.18034,-0.19872,-9.35893
1022,1022956,2.31759,0.59616,-9.77553
1023,1023956,0.45729,-1.32399,-8.99741
1024,1024956,2.29843,1.24259,-10.24718
1025,1025956,1.89860,-0.88585,-8.83221
1026,1026956,1.33596,1.01754,-9.79228
1027,1027956,2.17154,0.30885,-9.52892
1028,1028956,1.36230,-0.31843,-9.24162
1029,1029956,1.64482,0.26097,-9.41400
1030,1030956,1.58017,-0.06225,-9.32063
1031,1031956,1.58736,0.42377,-9.58160
1032,1032956,1.52511,-0.16041,-9.29190
1033,1033956,2.00634,0.49560,-9.71088
1034,1034956,1.23780,-0.56503,-9.14106
1035,1035956,1.39343,0.06704,-9.58638
1036,1036956,1.63763,-0.15083,-9.42118
1037,1037956,1.68312,0.55545,-9.82102
1038,1038956,1.66158,-0.75657,-9.02614
1039,1039956,0.85712,0.33998,-9.74201
1040,1040956,2.76770,0.19632,-9.67497
1041,1041956,1.14443,-0.30885,-8.87531
1042,1042956,1.88903,1.47962,-10.16817
1043,1043956,1.86748,-0.76375,-8.95671
1044,1044956,1.30484,0.51236,-9.56005
1045,1045956,1.78607,-0.12689,-9.31823
1046,1046956,1.39103,0.08380,-9.56962
1047,1047956,1.65439,0.28970,-9.31823
1048,1048956,1.81002,0.05507,-9.54329
1049,1049956,1.76453,0.00958,-9.43076
1050,1050956,1.00078,-0.35913,-9.20571
1051,1051956,1.67355,0.14365,-9.73961
1052,1052956,1.13964,-0.22745,-9.24880
1053,1053956,2.30801,0.67756,-9.82580
1054,1054956,0.58419,-1.29766,-8.92319
1055,1055956,2.07338,1.37906,-10.30225
1056,1056956,2.08774,-0.82600,-8.95192
1057,1057956,1.29526,0.84994,-9.67018
1058,1058956,2.28407,0.57940,-9.67018
1059,1059956,1.45807,-0.60573,-9.08600
1060,1060956,1.56102,0.39025,-9.46189
1061,1061956,1.66158,-0.15323,-9.32542
1062,1062956,1.60890,0.36152,-9.59596
1063,1063956,1.64242,-0.15562,-9.22725
1064,1064956,2.06141,0.50278,-9.69652
1065,1065956,1.32639,-0.50039,-9.18655
1066,1066956,1.25217,0.01676,-9.55287
1067,1067956,1.67834,-0.08380,-9.37091
1068,1068956,1.53468,0.45490,-9.64863
1069,1069956,1.88663,-0.47884,-9.21049
1070,1070956,0.68953,-0.06225,-9.55765
1071,1071956,2.81079,0.57700,-9.87369
1072,1072956,1.34554,-0.58419,-8.83460
1073,1073956,1.81241,1.55144,-10.16099
1074,1074956,1.93930,-0.76375,-9.03093
1075,1075956,1.37667,0.49799,-9.48583
1076,1076956,1.78607,-0.16281,-9.24880
1077,1077956,1.44610,0.00718,-9.46667
1078,1078956,1.62806,0.33040,-9.35175
1079,1079956,1.69270,-0.10056,-9.50737
1080,1080956,1.79086,0.16759,-9.43555
1081,1081956,1.05345,-0.34716,-9.16740
1082,1082956,1.69509,0.19632,-9.77792
1083,1083956,1.20907,-0.20830,-9.26795
1084,1084956,2.24097,0.78051,-9.91439
1085,1085956,0.70390,-1.43652,-8.83221
1086,1086956,1.97043,1.35512,-10.26394
1087,1087956,2.21224,-0.86910,-8.99980
1088,1088956,1.16837,0.73741,-9.57202
1089,1089956,2.31040,0.79966,-9.82102
1090,1090956,1.52511,-0.76136,-8.97347
1091,1091956,1.58496,0.42617,-9.50977
1092,1092956,1.69988,-0.17238,-9.29190
1093,1093956,1.59454,0.33519,-9.68455
1094,1094956,1.57778,-0.07422,-9.26317
1095,1095956,2.06141,0.38307,-9.66779
1096,1096956,1.30245,-0.46448,-9.16740
1097,1097956,1.15879,0.03591,-9.57920
1098,1098956,1.66397,-0.01676,-9.50737
1099,1099956,1.37188,0.28491,-9.56005
1100,1100956,2.01113,-0.13647,-9.32063
1101,1101956,0.46208,-0.37110,-9.37330
1102,1102956,2.73897,0.77812,-10.02213
1103,1103956,1.41976,-0.66080,-8.84658
1104,1104956,1.64482,1.46046,-10.16817
1105,1105956,2.03028,-0.53391,-9.12191
1106,1106956,1.41976,0.35674,-9.44034
1107,1107956,1.76453,-0.08859,-9.29190
1108,1108956,1.44849,0.03112,-9.50737
1109,1109956,1.66876,0.39504,-9.44991
1110,1110956,1.68312,-0.11013,-9.54568
1111,1111956,1.91776,0.23942,-9.52892
1112,1112956,1.01754,-0.49321,-9.19134
1113,1113956,1.64960,0.17717,-9.77313
1114,1114956,1.28090,-0.31364,-9.20810
1115,1115956,2.12126,0.79009,-9.87129
1116,1116956,0.88585,-1.40779,-8.74602
1117,1117956,1.86508,1.35512,-10.24958
1118,1118956,2.33914,-0.69671,-9.07402
1119,1119956,1.14682,0.57221,-9.43316
1120,1120956,2.25294,0.98402,-9.88087
1121,1121956,1.59214,-0.84994,-8.93516
1122,1122956,1.50835,0.52672,-9.52653
1123,1123956,1.74537,-0.12450,-9.31105
1124,1124956,1.48201,0.27533,-9.69173
1125,1125956,1.54905,-0.03112,-9.23683
1126,1126956,1.95846,0.32801,-9.68933
1127,1127956,1.36948,-0.43096,-9.18176
1128,1128956,1.18752,-0.01437,-9.42358
1129,1129956,1.75974,-0.03831,-9.56244
1130,1130956,1.29047,0.09577,-9.52174
1131,1131956,2.24097,0.09577,-9.48822
1132,1132956,0.43814,-0.75896,-9.22725
1133,1133956,2.68629,1.05345,-10.08917
1134,1134956,1.55623,-0.81163,-8.69335
1135,1135956,1.52750,1.39103,-10.04368
1136,1136956,2.07098,-0.32801,-9.16979
1137,1137956,1.40779,0.23942,-9.38527
1138,1138956,1.72143,-0.11492,-9.34218
1139,1139956,1.50116,-0.02873,-9.45470
1140,1140956,1.68312,0.45969,-9.50977
1141,1141956,1.57299,-0.22505,-9.40203
1142,1142956,1.91057,0.41659,-9.54089
1143,1143956,1.05345,-0.46448,-9.12191
1144,1144956,1.50595,0.18675,-9.76834
1145,1145956,1.35512,-0.23224,-9.31105
1146,1146956,2.02789,0.80924,-9.94791
1147,1147956,1.00556,-1.29526,-8.77714
1148,1148956,1.57778,1.18034,-10.15381
1149,1149956,2.44209,-0.55785,-9.25119
1150,1150956,1.03669,0.34716,-9.23683
1151,1151956,2.15718,1.23541,-9.96227
1152,1152956,1.61369,-0.86910,-8.86812
1153,1153956,1.43652,0.56743,-9.58638
1154,1154956,1.75974,-0.17957,-9.36372
1155,1155956,1.44370,0.19632,-9.69891
1156,1156956,1.60890,0.11971,-9.27993
1157,1157956,2.05662,0.24900,-9.72525
1158,1158956,1.46525,-0.38547,-9.22246
1159,1159956,1.12527,-0.12450,-9.39245
1160,1160956,1.81002,0.02394,-9.61033
1161,1161956,1.28329,0.05267,-9.38527
1162,1162956,2.36308,0.33998,-9.57920
1163,1163956,0.39744,-1.05345,-9.02853
1164,1164956,2.57616,1.30005,-10.08677
1165,1165956,1.61609,-0.87867,-8.70532
1166,1166956,1.43413,1.36230,-10.03649
1167,1167956,2.14999,-0.09577,-9.34696
1168,1168956,1.43892,-0.00479,-9.26795
1169,1169956,1.68552,0.05986,-9.34457
1170,1170956,1.58736,-0.09337,-9.38527
1171,1171956,1.63763,0.43335,-9.48583
1172,1172956,1.55863,-0.21787,-9.27035
1173,1173956,2.01352,0.45729,-9.52653
1174,1174956,1.13246,-0.57461,-9.11233
1175,1175956,1.45089,0.09577,-9.72285
1176,1176956,1.44131,-0.19872,-9.30387
1177,1177956,1.89860,0.67277,-9.92157
1178,1178956,1.26174,-1.08457,-8.87770
1179,1179956,1.31202,0.78290,-9.94551
1180,1180956,2.60010,-0.17478,-9.44513
1181,1181956,1.12049,0.11732,-9.08839
1182,1182956,2.06141,1.36709,-10.07001
1183,1183956,1.78607,-0.84276,-8.95910
1184,1184956,1.47962,0.55545,-9.52413
1185,1185956,1.86269,-0.12450,-9.33260
1186,1186956,1.44131,0.15323,-9.63187
1187,1187956,1.63285,0.22266,-9.20331
1188,1188956,1.91536,0.22984,-9.63906
1189,1189956,1.60890,-0.22745,-9.29429
1190,1190956,1.04627,-0.19393,-9.28950
1191,1191956,1.77889,0.06464,-9.62469
1192,1192956,1.15161,-0.06464,-9.33260
1193,1193956,2.31998,0.38547,-9.66060
1194,1194956,0.42377,-1.15879,-8.93037
1195,1195956,2.45406,1.38385,-10.24718
1196,1196956,1.75256,-0.90261,-8.76996
1197,1197956,1.36948,1.27850,-9.90960
1198,1198956,2.14760,0.09577,-9.38527
1199,1199956,1.41737,-0.19393,-9.23204
1200,1200956,1.66876,0.16281,-9.47625
1201,1201956,1.65679,-0.07901,-9.44991
1202,1202956,1.63045,0.38547,-9.65582
1203,1203956,1.57538,-0.24421,-9.32063
1204,1204956,2.00634,0.46448,-9.58878
1205,1205956,1.19231,-0.57940,-9.05487
1206,1206956,1.39582,0.08619,-9.63906
1207,1207956,1.55384,-0.24181,-9.40442
1208,1208956,1.73101,0.56264,-9.79707
1209,1209956,1.45567,-0.86670,-8.96868
1210,1210956,1.04387,0.50757,-9.81144
1211,1211956,2.69827,0.02394,-9.63906
1212,1212956,1.18034,-0.28970,-9.06445
1213,1213956,1.95127,1.39343,-10.12508
1214,1214956,1.87466,-0.90261,-8.96629
1215,1215956,1.34315,0.49799,-9.55287
1216,1216956,1.74058,-0.15562,-9.32063
1217,1217956,1.39821,0.10774,-9.56244
1218,1218956,1.62806,0.27773,-9.27035
1219,1219956,1.83875,0.09577,-9.60793
1220,1220956,1.69509,-0.06704,-9.31584
1221,1221956,1.04148,-0.24900,-9.27035
1222,1222956,1.74537,0.13168,-9.70609
1223,1223956,1.20668,-0.14605,-9.27993
1224,1224956,2.33674,0.56503,-9.75158
1225,1225956,0.48602,-1.29766,-8.90882
1226,1226956,2.39420,1.37427,-10.31901
1227,1227956,1.90339,-1.00078,-8.83700
1228,1228956,1.24977,1.17076,-9.82820
1229,1229956,2.26491,0.28491,-9.55765
1230,1230956,1.39103,-0.39504,-9.09078
1231,1231956,1.60651,0.28491,-9.45949
1232,1232956,1.61130,-0.15083,-9.31105
1233,1233956,1.60890,0.37350,-9.61272
1234,1234956,1.58736,-0.21548,-9.28950
1235,1235956,2.05422,0.45250,-9.63666
1236,1236956,1.23780,-0.56024,-9.04529
1237,1237956,1.33596,0.02155,-9.55765
1238,1238956,1.62087,-0.16041,-9.36612
1239,1239956,1.59933,0.48123,-9.73722
1240,1240956,1.66876,-0.57700,-9.10036
1241,1241956,0.85952,0.24660,-9.68455
1242,1242956,2.66235,0.36152,-9.77313
1243,1243956,1.25217,-0.33279,-8.91601
1244,1244956,1.87227,1.49159,-10.18015
1245,1245956,1.94170,-0.72544,-9.01178
1246,1246956,1.40300,0.49321,-9.55287
1247,1247956,1.80762,-0.13886,-9.33260
1248,1248956,1.44131,0.05746,-9.58878
1249,1249956,1.64960,0.25857,-9.27753
1250,1250956,1.86748,0.02873,-9.58160
1251,1251956,1.80283,0.06464,-9.40682
1252,1252956,1.00556,-0.36152,-9.24162
1253,1253956,1.71904,0.14844,-9.73004
1254,1254956,1.24020,-0.17957,-9.31344
1255,1255956,2.35829,0.64883,-9.85932
1256,1256956,0.54348,-1.32878,-8.86333
1257,1257956,2.23379,1.46765,-10.34774
1258,1258956,2.03986,-1.01993,-8.90882
1259,1259956,1.16837,1.02472,-9.70849
1260,1260956,2.22421,0.56982,-9.71088
1261,1261956,1.44131,-0.59616,-9.05966
1262,1262956,1.58257,0.35195,-9.48583
1263,1263956,1.65679,-0.15562,-9.30147
1264,1264956,1.57538,0.35195,-9.69173
1265,1265956,1.53947,-0.16759,-9.29429
1266,1266956,2.03268,0.44053,-9.71567
1267,1267956,1.26414,-0.51715,-9.08839
1268,1268956,1.26893,0.05986,-9.52413
1269,1269956,1.63285,-0.07901,-9.49301
1270,1270956,1.42216,0.42617,-9.64863
1271,1271956,1.85790,-0.50278,-9.14824
1272,1272956,0.63446,-0.02155,-9.60554
1273,1273956,2.73897,0.50278,-9.90002
1274,1274956,1.26893,-0.49081,-8.90164
1275,1275956,1.82678,1.53947,-10.16099
1276,1276956,1.98240,-0.65601,-9.02135
1277,1277956,1.32639,0.45729,-9.42837
1278,1278956,1.69270,-0.11013,-9.30387
1279,1279956,1.44610,0.01197,-9.58399
1280,1280956,1.67834,0.34716,-9.36612
1281,1281956,1.72143,-0.06943,-9.57920
1282,1282956,1.84593,0.16759,-9.42358
1283,1283956,0.99120,-0.44293,-9.13627
1284,1284956,1.65439,0.15323,-9.70370
1285,1285956,1.13725,-0.26336,-9.25119
1286,1286956,2.17633,0.82121,-9.86411
1287,1287956,0.78290,-1.39343,-8.83939
1288,1288956,2.03747,1.42455,-10.31901
1289,1289956,2.20027,-0.84276,-8.99502
1290,1290956,1.09415,0.69911,-9.51216
1291,1291956,2.26013,0.81642,-9.85932
1292,1292956,1.52032,-0.74939,-9.00699
1293,1293956,1.50595,0.42138,-9.61272
1294,1294956,1.68791,-0.21308,-9.31584
1295,1295956,1.57778,0.31125,-9.73961
1296,1296956,1.53229,-0.09337,-9.29908
1297,1297956,2.07817,0.40701,-9.70370
1298,1298956,1.35272,-0.53630,-9.17698
1299,1299956,1.22583,0.00718,-9.51935
1300,1300956,1.70946,-0.07183,-9.54089
1301,1301956,1.35033,0.24900,-9.55765
1302,1302956,2.02071,-0.25139,-9.33499
1303,1303956,0.52433,-0.45250,-9.38048
1304,1304956,2.75573,0.80445,-10.02692
1305,1305956,1.35751,-0.68714,-8.83221
1306,1306956,1.60412,1.48680,-10.12029
1307,1307956,2.00874,-0.48842,-9.09318
1308,1308956,1.38145,0.37589,-9.45470
1309,1309956,1.71904,-0.08859,-9.31584
1310,1310956,1.51074,-0.00718,-9.45949
1311,1311956,1.70228,0.37828,-9.49540
1312,1312956,1.65200,-0.17717,-9.51935
1313,1313956,1.91776,0.33758,-9.43794
1314,1314956,1.02472,-0.44532,-9.12909
1315,1315956,1.60412,0.20351,-9.68215
1316,1316956,1.24977,-0.29449,-9.23683
1317,1317956,2.08296,0.76375,-9.92157
1318,1318956,0.93134,-1.22583,-8.78672
1319,1319956,1.68073,1.26653,-10.18015
1320,1320956,2.34153,-0.67516,-9.15782
1321,1321956,1.07260,0.44532,-9.35175
1322,1322956,2.21942,1.08936,-10.09395
1323,1323956,1.63524,-0.79966,-8.99741
1324,1324956,1.46286,0.46208,-9.61511
1325,1325956,1.75734,-0.24421,-9.33739
1326,1326956,1.47004,0.24660,-9.71328
1327,1327956,1.56341,0.01676,-9.24641
1328,1328956,2.03028,0.36392,-9.68455
1329,1329956,1.45567,-0.38786,-9.20810
1330,1330956,1.18513,-0.01915,-9.50259
1331,1331956,1.75256,-0.01197,-9.69652
1332,1332956,1.23780,0.09337,-9.50977
1333,1333956,2.20027,0.09098,-9.51456
1334,1334956,0.44053,-0.84036,-9.17698
1335,1335956,2.67911,1.11091,-10.20409
1336,1336956,1.60412,-0.88825,-8.79151
1337,1337956,1.53708,1.50835,-10.07959
1338,1338956,2.19788,-0.32082,-9.25119
1339,1339956,1.39582,0.16281,-9.31344
1340,1340956,1.68552,-0.05507,-9.26077
1341,1341956,1.51792,-0.06464,-9.39006
1342,1342956,1.62566,0.40462,-9.50259
1343,1343956,1.63045,-0.23463,-9.35415
1344,1344956,1.92015,0.44772,-9.54089
1345,1345956,1.01514,-0.48123,-9.12191
1346,1346956,1.49638,0.16520,-9.75158
1347,1347956,1.44849,-0.24900,-9.29190
1348,1348956,1.99676,0.67277,-9.91918
1349,1349956,1.14203,-1.21865,-8.83700
1350,1350956,1.51074,0.90740,-10.00537
1351,1351956,2.57856,-0.40701,-9.33739
1352,1352956,1.16598,0.18914,-9.23922
1353,1353956,2.16436,1.36230,-10.10114
1354,1354956,1.75495,-0.86431,-8.98304
1355,1355956,1.39103,0.47884,-9.63666
1356,1356956,1.76453,-0.17238,-9.35175
1357,1357956,1.42934,0.18675,-9.63427
1358,1358956,1.59454,0.09337,-9.20092
1359,1359956,2.00874,0.27294,-9.63427
1360,1360956,1.56341,-0.29688,-9.21049
1361,1361956,1.10612,-0.12929,-9.33020
1362,1362956,1.80762,0.06225,-9.61511
1363,1363956,1.19471,-0.07422,-9.33739
1364,1364956,2.35589,0.27054,-9.63427
1365,1365956,0.42377,-1.05584,-9.06205
1366,1366956,2.55222,1.24738,-10.19691
1367,1367956,1.69509,-0.92895,-8.72447
1368,1368956,1.41976,1.31921,-9.94791
1369,1369956,2.16675,-0.02873,-9.38048
1370,1370956,1.42216,-0.08859,-9.31105
1371,1371956,1.63045,0.09816,-9.38048
1372,1372956,1.61609,-0.04788,-9.42837
1373,1373956,1.69509,0.40462,-9.63187
1374,1374956,1.63285,-0.24660,-9.30626
1375,1375956,2.07577,0.44772,-9.59596
1376,1376956,1.18034,-0.52433,-9.05966
1377,1377956,1.44131,0.15802,-9.75637
1378,1378956,1.49638,-0.19632,-9.34696
1379,1379956,1.75974,0.73263,-9.82580
1380,1380956,1.36948,-1.02711,-8.90404
1381,1381956,1.20189,0.75417,-9.98622
1382,1382956,2.63362,-0.15562,-9.56723
1383,1383956,1.10133,-0.09337,-9.05966
1384,1384956,1.99916,1.43652,-10.08198
1385,1385956,1.82199,-0.87149,-8.98783
1386,1386956,1.41737,0.51236,-9.58399
1387,1387956,1.79326,-0.26097,-9.29190
1388,1388956,1.43892,0.09816,-9.62708
1389,1389956,1.64721,0.22984,-9.32302
1390,1390956,1.84114,0.17957,-9.63906
1391,1391956,1.65200,-0.13408,-9.24880
1392,1392956,1.04148,-0.25139,-9.30866
1393,1393956,1.74058,0.09816,-9.75877
1394,1394956,1.11091,-0.18435,-9.36851
1395,1395956,2.37265,0.55067,-9.72046
1396,1396956,0.46926,-1.26174,-8.82982
1397,1397956,2.30562,1.46046,-10.28070
1398,1398956,1.90339,-0.97683,-8.81306
1399,1399956,1.25696,1.09894,-9.84735
1400,1400956,2.19548,0.28970,-9.55047
1401,1401956,1.41737,-0.35913,-9.17219
1402,1402956,1.57538,0.30406,-9.40442
1403,1403956,1.61130,-0.09337,-9.29429
1404,1404956,1.60890,0.41420,-9.63906
1405,1405956,1.55144,-0.25379,-9.29190
1406,1406956,2.06141,0.53630,-9.77792
1407,1407956,1.18992,-0.57221,-9.21528
1408,1408956,1.37906,0.07183,-9.60793
1409,1409956,1.61369,-0.15562,-9.38288
1410,1410956,1.54187,0.50278,-9.76834
1411,1411956,1.66158,-0.64643,-9.07881
1412,1412956,0.87149,0.16759,-9.66779
1413,1413956,2.73418,0.31843,-9.73722
1414,1414956,1.24498,-0.40462,-8.84418
1415,1415956,1.85790,1.41976,-10.09874
1416,1416956,1.94409,-0.72065,-9.06684
1417,1417956,1.33596,0.51954,-9.51935
1418,1418956,1.73819,-0.20830,-9.28232
1419,1419956,1.42216,0.03831,-9.52413
1420,1420956,1.66636,0.31603,-9.38048
1421,1421956,1.79805,0.00958,-9.61033
1422,1422956,1.82438,0.04549,-9.39006
1423,1423956,1.02951,-0.37589,-9.28471
1424,1424956,1.76213,0.13408,-9.77553
1425,1425956,1.21147,-0.22505,-9.30626
1426,1426956,2.29365,0.66080,-9.88805
1427,1427956,0.64883,-1.29047,-8.83221
1428,1428956,2.14042,1.33357,-10.29746
1429,1429956,2.10450,-0.93613,-8.97826
1430,1430956,1.18034,0.92416,-9.73722
1431,1431956,2.30322,0.59616,-9.78510
1432,1432956,1.52989,-0.59855,-9.16261
1433,1433956,1.60890,0.37828,-9.53132
1434,1434956,1.67355,-0.16759,-9.33020
1435,1435956,1.55144,0.35674,-9.67497
1436,1436956,1.56581,-0.15083,-9.21289
1437,1437956,2.02549,0.44772,-9.75877
1438,1438956,1.24977,-0.49081,-9.12191
1439,1439956,1.28090,0.05746,-9.58399
1440,1440956,1.67594,-0.10056,-9.44034
1441,1441956,1.47004,0.30406,-9.55287
1442,1442956,1.97043,-0.33758,-9.26795
1443,1443956,0.64165,-0.18196,-9.52413
1444,1444956,2.76291,0.61292,-9.93354
1445,1445956,1.39821,-0.56503,-8.82503
1446,1446956,1.75974,1.52032,-10.17057
1447,1447956,2.00634,-0.65122,-9.13627
1448,1448956,1.42216,0.40223,-9.50977
1449,1449956,1.73101,-0.15083,-9.31344
1450,1450956,1.48441,-0.03591,-9.48583
1451,1451956,1.66636,0.36152,-9.40203
1452,1452956,1.70707,-0.12929,-9.50259
1453,1453956,1.89860,0.22505,-9.48104
1454,1454956,0.91937,-0.43096,-9.15782
1455,1455956,1.60890,0.24181,-9.68933
1456,1456956,1.26893,-0.28491,-9.22725
1457,1457956,2.21224,0.73981,-9.91199
1458,1458956,0.79009,-1.32399,-8.79630
1459,1459956,1.75974,1.29766,-10.25676
1460,1460956,2.21224,-0.78769,-9.09078
1461,1461956,1.06781,0.54348,-9.42597
1462,1462956,2.22421,0.98881,-9.92875
1463,1463956,1.56581,-0.84994,-8.98783
1464,1464956,1.51792,0.47645,-9.56484
1465,1465956,1.71425,-0.22745,-9.32302
1466,1466956,1.51792,0.25857,-9.67018
1467,1467956,1.59214,-0.07422,-9.18176
1468,1468956,2.08296,0.40701,-9.70609
1469,1469956,1.38385,-0.47405,-9.14346
1470,1470956,1.17795,-0.01197,-9.47146
1471,1471956,1.74537,-0.03831,-9.60075
1472,1472956,1.32160,0.23942,-9.50977
1473,1473956,2.17872,0.00958,-9.48583
1474,1474956,0.51475,-0.61770,-9.27035
1475,1475956,2.67672,0.99359,-10.03649
1476,1476956,1.51553,-0.74460,-8.71968
1477,1477956,1.55384,1.39103,-10.02452
1478,1478956,2.09493,-0.38786,-9.16500
1479,1479956,1.39821,0.24181,-9.31105
1480,1480956,1.69749,-0.08140,-9.27753
1481,1481956,1.54187,-0.02634,-9.47625
1482,1482956,1.71185,0.39983,-9.47864
1483,1483956,1.65679,-0.21548,-9.39006
1484,1484956,1.96564,0.39983,-9.56484
1485,1485956,1.04387,-0.54827,-9.10515
1486,1486956,1.55863,0.20590,-9.73004
1487,1487956,1.35512,-0.19154,-9.18895
1488,1488956,2.04465,0.71347,-9.86890
1489,1489956,1.07500,-1.17316,-8.83460
1490,1490956,1.58257,1.06303,-10.11071
1491,1491956,2.49476,-0.44532,-9.24162
1492,1492956,1.12049,0.24660,-9.13148
1493,1493956,2.25055,1.22344,-10.03649
1494,1494956,1.71664,-0.85712,-8.95431
1495,1495956,1.42455,0.50518,-9.54329
1496,1496956,1.72383,-0.23942,-9.20331
1497,1497956,1.41018,0.15802,-9.67018
1498,1498956,1.64482,0.04310,-9.24880
1499,1499956,1.95127,0.31843,-9.72046
1500,1500956,1.46765,-0.32561,-9.30626
1501,1501956,1.11809,-0.13168,-9.34218
1502,1502956,1.67115,0.03831,-9.64145
1503,1503956,1.18034,-0.01915,-9.37809
1504,1504956,2.24337,0.34955,-9.60314
1505,1505956,0.38307,-1.02951,-9.09557
1506,1506956,2.53785,1.24020,-10.18015
1507,1507956,1.67355,-0.90740,-8.73165
1508,1508956,1.41737,1.26653,-9.92875
1509,1509956,2.15718,-0.06943,-9.32781
1510,1510956,1.36230,-0.05028,-9.33260
1511,1511956,1.59693,-0.01915,-9.43076
1512,1512956,1.56581,-0.08619,-9.41400
1513,1513956,1.63763,0.41659,-9.59357
1514,1514956,1.61369,-0.27773,-9.38288
1515,1515956,2.03507,0.47405,-9.61272
1516,1516956,1.17795,-0.56982,-9.11233
1517,1517956,1.46046,0.18435,-9.71088
1518,1518956,1.47962,-0.17957,-9.31823
1519,1519956,1.83156,0.56743,-9.91918
1520,1520956,1.43413,-1.00078,-8.93995
1521,1521956,1.14443,0.62728,-9.93833
1522,1522956,2.61447,-0.03831,-9.57202
1523,1523956,1.14682,-0.06225,-9.14585
1524,1524956,2.07817,1.38145,-10.21845
1525,1525956,1.89381,-0.79727,-8.97107
1526,1526956,1.89381,-0.79727,-8.97107
1527,1527956,1.41976,0.56743,-9.56005
1528,1528956,1.84354,-0.20111,-9.31823
1529,1529956,1.43652,0.10056,-9.61511
1530,1530956,1.66397,0.18435,-9.33978
1531,1531956,1.84354,0.16041,-9.58878
1532,1532956,1.62087,-0.10534,-9.29429
1533,1533956,1.05105,-0.20830,-9.24401
1534,1534956,1.69509,0.16759,-9.67257
1535,1535956,1.15640,-0.11732,-9.23683
1536,1536956,2.30322,0.59376,-9.75398
1537,1537956,0.49321,-1.36709,-8.84658
1538,1538956,2.31759,1.51314,-10.28788
1539,1539956,1.88184,-1.01514,-8.73405
1540,1540956,1.26174,1.22823,-9.80426
1541,1541956,2.23379,0.28730,-9.56244
1542,1542956,1.39103,-0.38786,-9.16500
1543,1543956,1.66158,0.22984,-9.53611
1544,1544956,1.64482,-0.16041,-9.29908
1545,1545956,1.64003,0.41659,-9.62708
1546,1546956,1.58496,-0.20590,-9.23922
1547,1547956,2.09014,0.45969,-9.61511
1548,1548956,1.21625,-0.59137,-9.07881
1549,1549956,1.29526,0.08619,-9.63906
1550,1550956,1.59693,-0.15802,-9.42597
1551,1551956,1.57778,0.47405,-9.73004
1552,1552956,1.70228,-0.61052,-9.04290
1553,1553956,0.84994,0.16041,-9.63906
1554,1554956,2.72939,0.41659,-9.78031
1555,1555956,1.32639,-0.46926,-8.92080
1556,1556956,1.80523,1.43413,-10.12268
1557,1557956,1.96085,-0.67516,-9.02614
1558,1558956,1.45567,0.46687,-9.49540
1559,1559956,1.75974,-0.21787,-9.26317
1560,1560956,1.43413,0.04070,-9.55765
1561,1561956,1.73580,0.31603,-9.31344
1562,1562956,1.84593,-0.01197,-9.54568
1563,1563956,1.82678,0.08619,-9.39006
1564,1564956,1.01514,-0.35195,-9.24641
1565,1565956,1.66876,0.19154,-9.75877
1566,1566956,1.24259,-0.22505,-9.18416
1567,1567956,2.29604,0.70629,-9.83778
1568,1568956,0.65122,-1.37667,-8.82982
1569,1569956,2.09253,1.42934,-10.38844
1570,1570956,2.12366,-0.92416,-8.94713
1571,1571956,1.16598,0.89304,-9.56005
1572,1572956,2.30083,0.75417,-9.69412
1573,1573956,1.51553,-0.61531,-9.13148
1574,1574956,1.53947,0.39983,-9.60075
1575,1575956,1.67834,-0.15802,-9.33978
1576,1576956,1.56820,0.34716,-9.67736
1577,1577956,1.59933,-0.06464,-9.26077
1578,1578956,2.06380,0.46208,-9.71328
1579,1579956,1.28569,-0.56264,-9.17458
1580,1580956,1.20907,0.00239,-9.52413
1581,1581956,1.72383,-0.03591,-9.54089
1582,1582956,1.36469,0.28491,-9.55526
1583,1583956,2.09971,-0.16520,-9.23922
1584,1584956,0.54109,-0.40701,-9.40203
1585,1585956,2.76291,0.79727,-10.07001
1586,1586956,1.41976,-0.68714,-8.83221
1587,1587956,1.69031,1.55144,-10.16099
1588,1588956,2.04704,-0.53151,-9.16500
1589,1589956,1.36230,0.30646,-9.48104
1590,1590956,1.74058,-0.20351,-9.28950
1591,1591956,1.46046,-0.01915,-9.48343
1592,1592956,1.71664,0.35434,-9.41400
1593,1593956,1.71185,-0.15323,-9.42597
1594,1594956,1.89142,0.33758,-9.52653
1595,1595956,1.06542,-0.52433,-9.16500
1596,1596956,1.58017,0.23224,-9.74679
1597,1597956,1.27850,-0.33279,-9.28950
1598,1598956,2.09253,0.78051,-9.93833
1599,1599956,0.92656,-1.31921,-8.78193
1600,1600956,1.71664,1.18034,-10.11311
1601,1601956,2.41575,-0.59855,-9.21528
1602,1602956,1.12288,0.39744,-9.32781
1603,1603956,2.18112,1.16598,-9.93594
1604,1604956,1.64482,-0.87628,-8.99023
1605,1605956,1.46525,0.48602,-9.54808
1606,1606956,1.67355,-0.16281,-9.31344
1607,1607956,1.49877,0.30646,-9.65821
1608,1608956,1.61609,-0.00239,-9.25119
1609,1609956,2.02071,0.32322,-9.68933
1610,1610956,1.44131,-0.33279,-9.30387
1611,1611956,1.06303,-0.05507,-9.41161
1612,1612956,1.72861,0.03112,-9.59596
1613,1613956,1.18034,0.07422,-9.45949
1614,1614956,2.25294,0.12689,-9.57202
1615,1615956,0.39265,-0.89783,-9.10515
1616,1616956,2.64799,1.11330,-10.15860
1617,1617956,1.62087,-0.89064,-8.75320
1618,1618956,1.45807,1.40061,-10.04846
1619,1619956,2.17872,-0.15562,-9.29908
1620,1620956,1.35751,0.14126,-9.33739
1621,1621956,1.66158,-0.02155,-9.40921
1622,1622956,1.57538,-0.06225,-9.55047
1623,1623956,1.64003,0.38068,-9.64145
1624,1624956,1.54187,-0.26097,-9.29669
1625,1625956,1.95606,0.48602,-9.54329
1626,1626956,1.14922,-0.51475,-9.15303
1627,1627956,1.47004,0.11732,-9.69891
1628,1628956,1.43413,-0.28970,-9.31584
1629,1629956,1.89142,0.67038,-9.91439
1630,1630956,1.26653,-1.06303,-8.82024
1631,1631956,1.30245,0.83797,-9.94791
1632,1632956,2.56658,-0.20830,-9.49062
1633,1633956,1.12049,-0.00958,-9.12191
1634,1634956,2.05422,1.42216,-10.09874
1635,1635956,1.83156,-0.85712,-9.03332
1636,1636956,1.40540,0.61052,-9.60314
1637,1637956,1.76932,-0.14605,-9.28711
1638,1638956,1.45807,0.20590,-9.55765
1639,1639956,1.60172,0.18435,-9.21289
1640,1640956,1.88903,0.18435,-9.60075
1641,1641956,1.61609,-0.22745,-9.26077
1642,1642956,1.04627,-0.14365,-9.32063
1643,1643956,1.74058,0.08140,-9.69412
1644,1644956,1.15401,-0.04788,-9.34218
1645,1645956,2.41336,0.45729,-9.70849
1646,1646956,0.46208,-1.12527,-8.94474
1647,1647956,2.49476,1.35751,-10.26155
1648,1648956,1.78847,-0.95289,-8.78193
1649,1649956,1.33596,1.19710,-9.89284
1650,1650956,2.21703,0.17478,-9.56005
1651,1651956,1.43652,-0.25618,-9.31105
1652,1652956,1.60412,0.20590,-9.45710
1653,1653956,1.60651,-0.10056,-9.32781
1654,1654956,1.65918,0.42377,-9.62469
1655,1655956,1.58496,-0.23463,-9.27514
1656,1656956,2.06859,0.43096,-9.64863
1657,1657956,1.27372,-0.56743,-9.10036
1658,1658956,1.40300,0.12929,-9.60554
1659,1659956,1.64003,-0.18675,-9.33739
1660,1660956,1.61369,0.56503,-9.82580
1661,1661956,1.59454,-0.65601,-9.08360
1662,1662956,0.90740,0.31364,-9.69412
1663,1663956,2.72460,0.29928,-9.72285
1664,1664956,1.25696,-0.39025,-8.89685
1665,1665956,1.82438,1.47004,-10.06044
1666,1666956,1.93451,-0.74939,-8.98304
1667,1667956,1.46525,0.50996,-9.50498
1668,1668956,1.80762,-0.18675,-9.33260
1669,1669956,1.41497,0.08619,-9.55047
1670,1670956,1.62806,0.28491,-9.30147
1671,1671956,1.82678,0.03352,-9.62230
1672,1672956,1.75495,0.00718,-9.40921
1673,1673956,0.99359,-0.39744,-9.20571
1674,1674956,1.70467,0.18196,-9.72764
1675,1675956,1.20668,-0.19872,-9.28950
1676,1676956,2.30562,0.69432,-9.87608
1677,1677956,0.56743,-1.30963,-8.82742
1678,1678956,2.13563,1.39821,-10.32140
1679,1679956,2.09971,-0.95289,-8.89685
1680,1680956,1.23780,0.99599,-9.58638
1681,1681956,2.29125,0.64165,-9.72285
1682,1682956,1.42455,-0.59616,-9.11951
1683,1683956,1.57538,0.31843,-9.51456
1684,1684956,1.70228,-0.15323,-9.33499
1685,1685956,1.59933,0.36871,-9.70609
1686,1686956,1.53468,-0.12210,-9.24401
1687,1687956,1.99198,0.51715,-9.62230
1688,1688956,1.25456,-0.48842,-9.13627
1689,1689956,1.18752,0.02155,-9.54329
1690,1690956,1.69509,-0.08619,-9.50019
1691,1691956,1.35991,0.27294,-9.57681
1692,1692956,2.01831,-0.17478,-9.27993
1693,1693956,0.58419,-0.37589,-9.31823
1694,1694956,2.65756,0.80685,-9.95749
1695,1695956,1.42934,-0.66559,-8.85855
1696,1696956,1.65679,1.45328,-10.10593
1697,1697956,2.08535,-0.51715,-9.03332
1698,1698956,1.38385,0.37110,-9.41161
1699,1699956,1.72143,-0.16041,-9.27514
1700,1700956,1.52511,-0.05267,-9.50498
1701,1701956,1.69031,0.38547,-9.44991
1702,1702956,1.66876,-0.13408,-9.53132
1703,1703956,1.89860,0.29449,-9.46189
1704,1704956,1.01993,-0.51236,-9.16740
1705,1705956,1.56581,0.16520,-9.70609
1706,1706956,1.24498,-0.26815,-9.22965
1707,1707956,2.13563,0.74460,-9.94551
1708,1708956,0.88346,-1.34075,-8.75560
1709,1709956,1.80762,1.27132,-10.29746
1710,1710956,2.28167,-0.76136,-9.10036
1711,1711956,1.05824,0.56024,-9.35415
1712,1712956,2.25055,1.04627,-9.91439
1713,1713956,1.60651,-0.75417,-8.97347
1714,1714956,1.48919,0.50039,-9.56005
1715,1715956,1.73101,-0.21069,-9.27274
1716,1716956,1.50595,0.23703,-9.62230
1717,1717956,1.54187,0.01197,-9.17458
1718,1718956,2.00155,0.33279,-9.61272
1719,1719956,1.44610,-0.40462,-9.23683
1720,1720956,1.11330,-0.06464,-9.49301
1721,1721956,1.75495,-0.02634,-9.63666
1722,1722956,1.24020,0.10774,-9.41400
1723,1723956,2.23618,0.25379,-9.55047
1724,1724956,0.48363,-0.88825,-9.21289
1725,1725956,2.66953,1.21147,-10.16817
1726,1726956,1.60412,-0.87388,-8.74362
1727,1727956,1.44610,1.42216,-10.01016
1728,1728956,2.19309,-0.17238,-9.25838
1729,1729956,1.47004,0.07183,-9.35893
1730,1730956,1.66158,-0.04070,-9.37569
1731,1731956,1.55863,-0.10056,-9.42118
1732,1732956,1.67594,0.45011,-9.56005
1733,1733956,1.62087,-0.24900,-9.37330
1734,1734956,1.93451,0.46448,-9.54329
1735,1735956,1.09176,-0.52194,-9.15303
1736,1736956,1.43173,0.11492,-9.71567
1737,1737956,1.38385,-0.24421,-9.28471
1738,1738956,1.86269,0.74939,-9.96467
1739,1739956,1.17795,-1.05345,-8.85376
1740,1740956,1.43413,0.83558,-10.00537
1741,1741956,2.59531,-0.33998,-9.44752
1742,1742956,1.05584,-0.00239,-9.11233
1743,1743956,2.02310,1.32639,-10.12029
1744,1744956,1.79565,-0.85473,-8.90404
1745,1745956,1.40540,0.49560,-9.50259
1746,1746956,1.75974,-0.18196,-9.23683
1747,1747956,1.46765,0.13886,-9.57920
1748,1748956,1.59454,0.10534,-9.16500
1749,1749956,1.92494,0.22266,-9.53371
1750,1750956,1.57538,-0.26576,-9.22007
1751,1751956,1.10852,-0.15802,-9.36372
1752,1752956,1.73580,0.09577,-9.67257
1753,1753956,1.19231,-0.02394,-9.31584
1754,1754956,2.32238,0.52433,-9.71567
1755,1755956,0.43574,-1.20189,-9.05248
1756,1756956,2.48279,1.38145,-10.32859
1757,1757956,1.86269,-0.93853,-8.81306
1758,1758956,1.34794,1.28569,-9.90960
1759,1759956,2.20506,0.03352,-9.45470
1760,1760956,1.35512,-0.20351,-9.27274
1761,1761956,1.66876,0.14605,-9.44273
1762,1762956,1.60651,-0.11253,-9.37809
1763,1763956,1.64721,0.41659,-9.67497
1764,1764956,1.59214,-0.30885,-9.33978
1765,1765956,2.03507,0.46208,-9.67018
1766,1766956,1.18034,-0.60334,-9.12191
1767,1767956,1.36469,0.11971,-9.66779
1768,1768956,1.55384,-0.22984,-9.38288
1769,1769956,1.73819,0.55067,-9.86411
1770,1770956,1.46286,-0.85234,-8.92080
1771,1771956,1.11570,0.43814,-9.81623
1772,1772956,2.66953,0.11492,-9.66539
1773,1773956,1.15640,-0.23703,-8.98065
1774,1774956,1.98000,1.42216,-10.12268
1775,1775956,1.93930,-0.82361,-8.96150
1776,1776956,1.45328,0.50757,-9.51216
1777,1777956,1.78129,-0.19872,-9.24162
1778,1778956,1.41018,0.06225,-9.58638
1779,1779956,1.64960,0.23703,-9.27753
1780,1780956,1.81720,0.11492,-9.59596
1781,1781956,1.68312,-0.08859,-9.36851
1782,1782956,1.02951,-0.35434,-9.31344
1783,1783956,1.75256,0.09098,-9.70849
1784,1784956,1.13964,-0.12450,-9.27514
1785,1785956,2.26731,0.63686,-9.75877
1786,1786956,0.47405,-1.27611,-8.92319
1787,1787956,2.34153,1.34315,-10.32619
1788,1788956,1.92015,-0.97444,-8.75320
1789,1789956,1.29526,1.11809,-9.75398
1790,1790956,2.30083,0.31125,-9.56005
1791,1791956,1.42455,-0.37828,-9.13627
1792,1792956,1.61609,0.23224,-9.50019
1793,1793956,1.67834,-0.16999,-9.35175
1794,1794956,1.64721,0.34477,-9.68933
1795,1795956,1.59933,-0.27773,-9.33260
1796,1796956,2.06620,0.42377,-9.66300
1797,1797956,1.22583,-0.54827,-9.17219
1798,1798956,1.25935,0.11732,-9.61511
1799,1799956,1.56341,-0.13408,-9.33020
1800,1800956,1.65918,0.51475,-9.67497
1801,1801956,1.63763,-0.71347,-8.98544
1802,1802956,0.85234,0.21308,-9.64863
1803,1803956,2.74376,0.29928,-9.76355
1804,1804956,1.25935,-0.44053,-8.91840
1805,1805956,1.83635,1.53468,-10.07720
1806,1806956,1.89381,-0.78051,-8.94474
1807,1807956,1.35272,0.54588,-9.50977
1808,1808956,1.78368,-0.15802,-9.34457
1809,1809956,1.43173,-0.02873,-9.54568
1810,1810956,1.68312,0.28012,-9.36851
1811,1811956,1.78847,0.07422,-9.65342
1812,1812956,1.72861,0.06943,-9.41161
1813,1813956,1.01754,-0.30406,-9.23444
1814,1814956,1.73580,0.22027,-9.73961
1815,1815956,1.18513,-0.23463,-9.25598
1816,1816956,2.31759,0.75178,-9.87129
1817,1817956,0.58658,-1.33596,-8.87291
1818,1818956,2.18112,1.35272,-10.22324
1819,1819956,2.08535,-0.84276,-8.89685
1820,1820956,1.24020,0.88585,-9.68455
1821,1821956,2.27928,0.59855,-9.68933
1822,1822956,1.46765,-0.55545,-9.16740
1823,1823956,1.55863,0.33758,-9.55047
1824,1824956,1.58496,-0.13886,-9.28950
1825,1825956,1.56581,0.36871,-9.65582
1826,1826956,1.55144,-0.21787,-9.30147
1827,1827956,2.07098,0.45729,-9.71088
1828,1828956,1.25696,-0.49081,-9.15064
1829,1829956,1.23780,0.08619,-9.63187
1830,1830956,1.59214,-0.13647,-9.44991
1831,1831956,1.52032,0.47166,-9.72764
1832,1832956,1.79805,-0.58658,-9.11233
1833,1833956,0.78051,0.03352,-9.58160
1834,1834956,2.74376,0.46208,-9.87129
1835,1835956,1.25935,-0.58419,-8.87531
1836,1836956,1.85790,1.58736,-10.21127
1837,1837956,1.99198,-0.83558,-9.00938
1838,1838956,1.30484,0.45250,-9.49540
1839,1839956,1.78607,-0.14365,-9.32302
1840,1840956,1.41737,-0.02155,-9.52653
1841,1841956,1.65918,0.36392,-9.36612
1842,1842956,1.78607,0.00239,-9.58399
1843,1843956,1.77650,0.12210,-9.39724
1844,1844956,1.03669,-0.39504,-9.11712
1845,1845956,1.72383,0.16759,-9.71328
1846,1846956,1.15640,-0.28730,-9.31584
1847,1847956,2.18351,0.77093,-9.92636
1848,1848956,0.60813,-1.38624,-8.90164
1849,1849956,2.04225,1.35512,-10.25915
1850,1850956,2.12366,-0.82121,-9.00938
1851,1851956,1.16358,0.75896,-9.64863
1852,1852956,2.26252,0.77572,-9.76116
1853,1853956,1.49159,-0.68714,-9.04529
1854,1854956,1.57060,0.40941,-9.45949
1855,1855956,1.64482,-0.15083,-9.31584
1856,1856956,1.62087,0.35434,-9.73243
1857,1857956,1.55623,-0.13647,-9.22486
1858,1858956,2.04704,0.47645,-9.67976
1859,1859956,1.29287,-0.46208,-9.19852
1860,1860956,1.24977,0.10056,-9.56723
1861,1861956,1.65918,-0.12210,-9.49780
1862,1862956,1.50356,0.39983,-9.71088
1863,1863956,1.93930,-0.43814,-9.16500
1864,1864956,0.65122,-0.03112,-9.54808
1865,1865956,2.81558,0.55545,-9.93354
1866,1866956,1.31921,-0.55067,-8.81784
1867,1867956,1.77171,1.47962,-10.17296
1868,1868956,1.98000,-0.69192,-9.02614
1869,1869956,1.34315,0.42617,-9.51216
1870,1870956,1.79805,-0.18675,-9.29669
1871,1871956,1.46765,0.02155,-9.50498
1872,1872956,1.65439,0.38547,-9.38766
1873,1873956,1.78607,-0.01676,-9.48583
1874,1874956,1.84832,0.17478,-9.48822
1875,1875956,0.97444,-0.42617,-9.22725
1876,1876956,1.68552,0.19872,-9.76355
1877,1877956,1.27611,-0.23942,-9.24162
1878,1878956,2.22421,0.79248,-9.84975
1879,1879956,0.73741,-1.43652,-8.81066
1880,1880956,2.00874,1.41018,-10.22564
1881,1881956,2.22661,-0.85952,-9.03572
1882,1882956,1.16119,0.77093,-9.53850
1883,1883956,2.25534,0.89783,-9.82820
1884,1884956,1.47483,-0.74220,-8.95192
1885,1885956,1.58257,0.37589,-9.47625
1886,1886956,1.70707,-0.25857,-9.25838
1887,1887956,1.64721,0.29449,-9.70849
1888,1888956,1.59933,-0.11732,-9.31344
1889,1889956,2.06620,0.45011,-9.73482
1890,1890956,1.32639,-0.44772,-9.10994
1891,1891956,1.18992,0.05028,-9.52413
1892,1892956,1.73819,-0.04788,-9.52892
1893,1893956,1.41258,0.25857,-9.58638
1894,1894956,2.05662,-0.14126,-9.28232
1895,1895956,0.59616,-0.35674,-9.39724
1896,1896956,2.72221,0.76854,-10.02931
1897,1897956,1.40540,-0.65362,-8.87052
1898,1898956,1.66876,1.45567,-10.22085
1899,1899956,2.05183,-0.54827,-9.21768
1900,1900956,1.39821,0.33279,-9.51695
1901,1901956,1.71664,-0.14844,-9.30387
1902,1902956,1.46525,-0.00479,-9.51935
1903,1903956,1.68312,0.39265,-9.41640
1904,1904956,1.70946,-0.10534,-9.51216
1905,1905956,1.89142,0.22027,-9.45470
1906,1906956,1.01275,-0.43574,-9.13627
1907,1907956,1.67355,0.21787,-9.77074
1908,1908956,1.25696,-0.31364,-9.22007
1909,1909956,2.13563,0.86431,-9.90002
1910,1910956,0.75417,-1.45328,-8.75560
1911,1911956,1.84114,1.48919,-10.30225
1912,1912956,2.23858,-0.84036,-9.13867
1913,1913956,1.11091,0.63207,-9.49062
1914,1914956,2.26970,0.95768,-9.89763
1915,1915956,1.52750,-0.85473,-8.99023
1916,1916956,1.51074,0.47645,-9.58160
1917,1917956,1.70228,-0.13647,-9.31344
1918,1918956,1.54665,0.37110,-9.67976
1919,1919956,1.57060,-0.03112,-9.28232
1920,1920956,2.02549,0.38307,-9.69891
1921,1921956,1.35751,-0.51954,-9.19373
1922,1922956,1.20428,-0.00479,-9.49062
1923,1923956,1.69270,-0.09577,-9.50259
1924,1924956,1.33118,0.21069,-9.55526
1925,1925956,2.07338,-0.04788,-9.36851
1926,1926956,0.57221,-0.45250,-9.40203
1927,1927956,2.72700,0.81163,-9.97664
1928,1928956,1.46286,-0.67756,-8.82982
1929,1929956,1.65439,1.42934,-10.11071
1930,1930956,2.08056,-0.44293,-9.08360
1931,1931956,1.37667,0.30885,-9.40682
1932,1932956,1.73101,-0.12210,-9.33978
1933,1933956,1.48201,-0.06225,-9.50977
1934,1934956,1.68552,0.42138,-9.44752
1935,1935956,1.66397,-0.12929,-9.42597
1936,1936956,1.88184,0.23942,-9.48822
1937,1937956,0.92177,-0.45490,-9.11233
1938,1938956,1.65200,0.22266,-9.75398
1939,1939956,1.25456,-0.28730,-9.22725
1940,1940956,2.14520,0.68714,-9.92397
1941,1941956,0.75896,-1.35751,-8.75320
1942,1942956,1.90339,1.32639,-10.28310
1943,1943956,2.32238,-0.80685,-9.12191
1944,1944956,1.07260,0.62010,-9.36612
1945,1945956,2.27210,1.01993,-9.93115
1946,1946956,1.61848,-0.76614,-8.97826
1947,1947956,1.50835,0.46926,-9.59357
1948,1948956,1.71185,-0.15083,-9.28950
1949,1949956,1.56820,0.30885,-9.65342
1950,1950956,1.63285,-0.01197,-9.22486
1951,1951956,2.06859,0.37589,-9.73243
1952,1952956,1.35272,-0.50757,-9.20331
1953,1953956,1.14443,0.00958,-9.54329
1954,1954956,1.71904,-0.03352,-9.56962
1955,1955956,1.26893,0.19154,-9.51216
1956,1956956,2.19309,-0.04788,-9.39006
1957,1957956,0.50757,-0.53630,-9.29669
1958,1958956,2.70545,0.96486,-10.05565
1959,1959956,1.43892,-0.77333,-8.86094
1960,1960956,1.61848,1.45807,-10.12987
1961,1961956,2.07338,-0.44053,-9.14824
1962,1962956,1.41018,0.33040,-9.48104
1963,1963956,1.69749,-0.07422,-9.34218
1964,1964956,1.55384,-0.04549,-9.47146
1965,1965956,1.70707,0.39983,-9.50977
1966,1966956,1.68791,-0.15083,-9.49062
1967,1967956,1.96803,0.33998,-9.50977
1968,1968956,0.99838,-0.47645,-9.10994
1969,1969956,1.56341,0.24900,-9.64624
1970,1970956,1.29047,-0.20351,-9.16740
1971,1971956,2.10450,0.76136,-9.92397
1972,1972956,0.86431,-1.29766,-8.79151
1973,1973956,1.72622,1.13964,-10.19930
1974,1974956,2.40378,-0.59855,-9.15782
1975,1975956,1.11330,0.45011,-9.33260
1976,1976956,2.21224,1.10612,-9.92157
1977,1977956,1.63524,-0.83797,-8.86094
1978,1978956,1.52750,0.44772,-9.54808
1979,1979956,1.71185,-0.19632,-9.29190
1980,1980956,1.57778,0.27054,-9.72285
1981,1981956,1.58017,0.00958,-9.26317
1982,1982956,2.03986,0.37110,-9.73004
1983,1983956,1.45089,-0.43096,-9.17219
1984,1984956,1.22344,-0.05267,-9.52653
1985,1985956,1.77650,-0.07901,-9.59117
1986,1986956,1.30245,0.20590,-9.49780
1987,1987956,2.16675,-0.02394,-9.48343
1988,1988956,0.52672,-0.67995,-9.25838
1989,1989956,2.75094,1.04866,-10.16817
1990,1990956,1.49159,-0.87149,-8.76278
1991,1991956,1.60651,1.50595,-10.07241
1992,1992956,2.15478,-0.46926,-9.14346
1993,1993956,1.38864,0.23703,-9.47146
1994,1994956,1.69270,-0.12210,-9.37809
1995,1995956,1.52032,-0.07422,-9.44752
1996,1996956,1.61848,0.38307,-9.50977
1997,1997956,1.64242,-0.15083,-9.51216
1998,1998956,1.92973,0.32322,-9.55287
1999,1999956,1.00078,-0.51954,-9.08839
2000,2000956,1.62566,0.16520,-9.69652
2001,2001956,1.30005,-0.29449,-9.27035
2002,2002956,2.11887,0.75417,-10.00537
2003,2003956,0.92177,-1.26653,-8.76517
2004,2004956,1.73819,1.17076,-10.14184
2005,2005956,2.37265,-0.58658,-9.19613
2006,2006956,1.13964,0.40701,-9.32542
2007,2007956,2.19309,1.09176,-9.92397
2008,2008956,1.60890,-0.82361,-8.98544
2009,2009956,1.50595,0.47405,-9.60314
2010,2010956,1.72622,-0.15083,-9.25119
2011,2011956,1.58496,0.24181,-9.65342
2012,2012956,1.55144,0.02873,-9.22725
2013,2013956,2.03268,0.37828,-9.72525
2014,2014956,1.35751,-0.34955,-9.19613
2015,2015956,1.18513,0.01437,-9.43076
2016,2016956,1.75495,-0.04070,-9.56962
2017,2017956,1.28569,0.28012,-9.48343
2018,2018956,2.20027,-0.06464,-9.42597
2019,2019956,0.44532,-0.55067,-9.27514
2020,2020956,2.71502,0.94810,-10.09395
2021,2021956,1.47722,-0.73981,-8.68138
2022,2022956,1.62327,1.49398,-10.03170
2023,2023956,2.10690,-0.42856,-9.18176
2024,2024956,1.30963,0.27294,-9.48104
2025,2025956,1.71904,-0.09816,-9.41400
2026,2026956,1.51553,-0.06943,-9.48104
2027,2027956,1.65679,0.41180,-9.45231
2028,2028956,1.58257,-0.16999,-9.37569
2029,2029956,1.89381,0.33279,-9.54089
2030,2030956,1.06781,-0.47645,-9.22965
2031,2031956,1.56820,0.14365,-9.78031
2032,2032956,1.30005,-0.31603,-9.26795
2033,2033956,2.06859,0.82361,-9.97185
2034,2034956,0.92416,-1.32639,-8.77475
2035,2035956,1.68552,1.13725,-10.21127
2036,2036956,2.39420,-0.61770,-9.16740
2037,2037956,1.12767,0.37110,-9.29669
2038,2038956,2.18112,1.16358,-9.93594
2039,2039956,1.61130,-0.85473,-8.93756
2040,2040956,1.44370,0.46926,-9.57202
2041,2041956,1.69031,-0.15083,-9.27035
2042,2042956,1.49159,0.25379,-9.63666
2043,2043956,1.62327,0.01197,-9.16979
2044,2044956,2.00874,0.33758,-9.67497
2045,2045956,1.46046,-0.35434,-9.18895
2046,2046956,1.12049,-0.11492,-9.41400
2047,2047956,1.72622,-0.02394,-9.58878
2048,2048956,1.26174,0.13168,-9.47625
2049,2049956,2.17633,0.05028,-9.46189
2050,2050956,0.43335,-0.72065,-9.21528
2051,2051956,2.67432,1.01035,-10.09156
2052,2052956,1.47722,-0.81163,-8.75799
2053,2053956,1.52750,1.29766,-10.06283
2054,2054956,2.09732,-0.40462,-9.19134
2055,2055956,1.35512,0.17478,-9.42837
2056,2056956,1.70467,-0.08140,-9.35415
2057,2057956,1.45328,-0.04788,-9.45470
2058,2058956,1.67355,0.41420,-9.52174
2059,2059956,1.60651,-0.21069,-9.42597
2060,2060956,2.02549,0.37110,-9.58878
2061,2061956,1.12288,-0.48363,-9.11473
2062,2062956,1.50835,0.18196,-9.70131
2063,2063956,1.35033,-0.20590,-9.21049
2064,2064956,1.97761,0.74460,-9.89045
2065,2065956,1.04627,-1.30245,-8.84179
2066,2066956,1.59454,1.10373,-10.10353
2067,2067956,2.45885,-0.44772,-9.34696
2068,2068956,1.07739,0.23942,-9.28950
2069,2069956,2.17872,1.26174,-10.11071
2070,2070956,1.71185,-0.91698,-9.00699
2071,2071956,1.44370,0.59616,-9.51216
2072,2072956,1.70228,-0.19154,-9.26795
2073,2073956,1.50356,0.21069,-9.70609
2074,2074956,1.58257,0.14365,-9.23922
2075,2075956,1.97282,0.26815,-9.66779
2076,2076956,1.53947,-0.25139,-9.21768
2077,2077956,1.08936,-0.17238,-9.32063
2078,2078956,1.72622,0.03591,-9.57920
2079,2079956,1.19231,0.07422,-9.48583
2080,2080956,2.27689,0.22505,-9.61511
2081,2081956,0.39744,-0.83079,-9.16022
2082,2082956,2.60729,1.12049,-10.19451
2083,2083956,1.63524,-0.79009,-8.73884
2084,2084956,1.50835,1.32878,-10.01495
2085,2085956,2.18830,-0.12689,-9.26317
2086,2086956,1.38624,0.06704,-9.33499
2087,2087956,1.67594,0.03831,-9.38527
2088,2088956,1.52511,0.00718,-9.36851
2089,2089956,1.66636,0.40941,-9.53371
2090,2090956,1.57299,-0.19393,-9.34936
2091,2091956,2.03268,0.53630,-9.60554
2092,2092956,1.09654,-0.52194,-9.13388
2093,2093956,1.44370,0.15323,-9.66539
2094,2094956,1.46765,-0.22505,-9.33499
2095,2095956,1.85790,0.74699,-9.91199
2096,2096956,1.20428,-1.03190,-8.88488
2097,2097956,1.30245,0.78530,-9.96946
2098,2098956,2.60010,-0.19154,-9.50259
2099,2099956,1.10133,-0.03831,-9.03572
2100,2100956,2.06859,1.35272,-10.07480
2101,2101956,1.87227,-0.85234,-8.95192
2102,2102956,1.45328,0.54109,-9.54329
2103,2103956,1.73101,-0.15323,-9.29190
2104,2104956,1.37427,0.16999,-9.61990
2105,2105956,1.59454,0.18196,-9.25359
2106,2106956,1.88903,0.22266,-9.66060
2107,2107956,1.57299,-0.16520,-9.33499
2108,2108956,0.99838,-0.17478,-9.34696
2109,2109956,1.74777,0.11732,-9.70370
2110,2110956,1.18513,-0.08859,-9.36133
2111,2111956,2.31759,0.49081,-9.73482
2112,2112956,0.42138,-1.18992,-8.99980
2113,2113956,2.43730,1.34794,-10.25915
2114,2114956,1.79326,-0.91937,-8.76517
2115,2115956,1.31202,1.16119,-9.91678
2116,2116956,2.22182,0.06225,-9.45949
2117,2117956,1.37906,-0.16999,-9.29669
2118,2118956,1.62327,0.15083,-9.48822
2119,2119956,1.54905,-0.10295,-9.38527
2120,2120956,1.64242,0.45729,-9.57202
2121,2121956,1.58736,-0.27294,-9.23683
2122,2122956,2.07817,0.51715,-9.61511
2123,2123956,1.18992,-0.56982,-9.18176
2124,2124956,1.34794,0.10534,-9.71088
2125,2125956,1.53468,-0.20590,-9.33020
2126,2126956,1.72143,0.61292,-9.80186
2127,2127956,1.52032,-0.91698,-8.94474
2128,2128956,1.16358,0.50278,-9.82580
2129,2129956,2.65278,0.02634,-9.62230
2130,2130956,1.19231,-0.13647,-8.96629
2131,2131956,1.93930,1.49877,-10.11071
2132,2132956,1.82438,-0.81642,-8.98783
2133,2133956,1.38145,0.47645,-9.55287
2134,2134956,1.79326,-0.24421,-9.33978
2135,2135956,1.41258,0.07901,-9.54329
2136,2136956,1.62806,0.28012,-9.31823
2137,2137956,1.85790,0.12929,-9.65103
2138,2138956,1.69988,-0.11253,-9.34696
2139,2139956,0.98881,-0.33758,-9.22965
2140,2140956,1.69749,0.16281,-9.73243
2141,2141956,1.12288,-0.10295,-9.29669
2142,2142956,2.36308,0.55306,-9.77074
2143,2143956,0.44772,-1.30005,-8.92319
2144,2144956,2.34392,1.44610,-10.25437
2145,2145956,1.86987,-0.90501,-8.85855
2146,2146956,1.24738,1.09894,-9.85693
2147,2147956,2.24816,0.37350,-9.56244
2148,2148956,1.45328,-0.34955,-9.16740
2149,2149956,1.66636,0.27533,-9.52892
2150,2150956,1.62087,-0.10534,-9.33739
2151,2151956,1.62806,0.34955,-9.61511
2152,2152956,1.55863,-0.15083,-9.27993
2153,2153956,2.03268,0.49321,-9.73482
2154,2154956,1.20428,-0.47645,-9.17698
2155,2155956,1.30245,0.08140,-9.61033
2156,2156956,1.64482,-0.21548,-9.43316
2157,2157956,1.64482,0.51236,-9.77553
2158,2158956,1.64242,-0.63207,-9.05727
2159,2159956,0.91937,0.19393,-9.61751
2160,2160956,2.65756,0.25857,-9.68694
2161,2161956,1.27611,-0.37110,-8.93995
2162,2162956,1.91057,1.42934,-10.15620
2163,2163956,1.95846,-0.74220,-9.01896
2164,2164956,1.40061,0.47405,-9.44991
2165,2165956,1.79326,-0.14605,-9.24162
2166,2166956,1.49877,0.01197,-9.64384
2167,2167956,1.70467,0.28730,-9.36612
2168,2168956,1.85072,0.09577,-9.61272
2169,2169956,1.80044,0.05028,-9.37091
2170,2170956,1.02951,-0.31843,-9.23683
2171,2171956,1.72383,0.09816,-9.71328
2172,2172956,1.16598,-0.16999,-9.29190
2173,2173956,2.31998,0.62489,-9.76834
2174,2174956,0.48123,-1.29287,-8.84418
2175,2175956,2.22900,1.41258,-10.34295
2176,2176956,2.01113,-0.87628,-8.88728
2177,2177956,1.25217,1.04387,-9.81623
2178,2178956,2.25773,0.46687,-9.64145
2179,2179956,1.44849,-0.56264,-9.15064
2180,2180956,1.63524,0.28730,-9.49780
2181,2181956,1.65439,-0.09816,-9.27514
2182,2182956,1.61369,0.39504,-9.67976
2183,2183956,1.55384,-0.15562,-9.25838
2184,2184956,2.02310,0.48842,-9.62230
2185,2185956,1.23062,-0.52194,-9.13388
2186,2186956,1.28090,0.04549,-9.57681
2187,2187956,1.63524,-0.08619,-9.49062
2188,2188956,1.53947,0.37828,-9.66779
2189,2189956,1.78847,-0.45969,-9.17698
2190,2190956,0.75657,-0.03591,-9.59596
2191,2191956,2.77727,0.56982,-9.85214
2192,2192956,1.29526,-0.47405,-8.80109
2193,2193956,1.81959,1.45807,-10.06044
2194,2194956,2.02549,-0.68953,-9.01656
2195,2195956,1.42934,0.56503,-9.49062
2196,2196956,1.80044,-0.16041,-9.28711
2197,2197956,1.47004,0.03831,-9.52174
2198,2198956,1.68073,0.29209,-9.37569
2199,2199956,1.78607,-0.06464,-9.60314
2200,2200956,1.81959,0.08380,-9.38527
2201,2201956,1.03430,-0.42377,-9.20331
2202,2202956,1.72143,0.19154,-9.77074
2203,2203956,1.19710,-0.28970,-9.18655
2204,2204956,2.25294,0.70629,-9.87129
2205,2205956,0.60813,-1.40779,-8.88249
2206,2206956,1.96325,1.29287,-10.28788
2207,2207956,2.09971,-0.86431,-8.97586
2208,2208956,1.11570,0.82121,-9.56005
2209,2209956,2.27928,0.68714,-9.74201
2210,2210956,1.45807,-0.66080,-9.06205
2211,2211956,1.58975,0.42138,-9.51456
2212,2212956,1.64721,-0.15562,-9.27035
2213,2213956,1.54905,0.35674,-9.63906
2214,2214956,1.55863,-0.09098,-9.20092
2215,2215956,2.05183,0.42377,-9.60075
2216,2216956,1.27132,-0.53151,-9.09557
2217,2217956,1.13964,0.01915,-9.56723
2218,2218956,1.62806,-0.07422,-9.54089
2219,2219956,1.42694,0.31125,-9.66779
2220,2220956,1.93691,-0.22027,-9.22486
2221,2221956,0.65362,-0.26576,-9.48583
2222,2222956,2.74376,0.69432,-10.01734
2223,2223956,1.41737,-0.56503,-8.90882
2224,2224956,1.75974,1.47243,-10.17775
2225,2225956,1.97043,-0.62010,-9.08360
2226,2226956,1.41258,0.41899,-9.49062
2227,2227956,1.78368,-0.16520,-9.32302
2228,2228956,1.48680,0.00958,-9.49780
2229,2229956,1.70946,0.38307,-9.38288
2230,2230956,1.74537,-0.09337,-9.56484
2231,2231956,1.86508,0.16520,-9.46189
2232,2232956,0.99120,-0.50518,-9.17698
2233,2233956,1.63524,0.19393,-9.75637
2234,2234956,1.22583,-0.20351,-9.28711
2235,2235956,2.16196,0.73502,-9.91199
2236,2236956,0.73023,-1.44849,-8.72686
2237,2237956,1.91776,1.40779,-10.21366
2238,2238956,2.21224,-0.81163,-8.94234
2239,2239956,1.11330,0.71347,-9.41161
2240,2240956,2.24816,0.84515,-9.80426
2241,2241956,1.50356,-0.78290,-8.99502
2242,2242956,1.57778,0.46208,-9.54089
2243,2243956,1.76453,-0.19632,-9.32063
2244,2244956,1.52032,0.30885,-9.73722
2245,2245956,1.58017,-0.08859,-9.27274
2246,2246956,2.03507,0.42856,-9.66539
2247,2247956,1.37188,-0.49081,-9.10275
2248,2248956,1.26653,-0.01437,-9.47146
2249,2249956,1.70467,-0.05267,-9.45949
2250,2250956,1.31442,0.26097,-9.50498
2251,2251956,2.04944,-0.08140,-9.39485
2252,2252956,0.62010,-0.46687,-9.44273
2253,2253956,2.71024,0.86910,-10.01734
2254,2254956,1.36948,-0.69671,-8.80827
2255,2255956,1.64003,1.46046,-10.11311
2256,2256956,2.05662,-0.52912,-9.19134
2257,2257956,1.42216,0.32561,-9.46907
2258,2258956,1.68552,-0.11013,-9.32542
2259,2259956,1.45567,-0.02155,-9.59596
2260,2260956,1.65679,0.39504,-9.52653
2261,2261956,1.66636,-0.10056,-9.53132
2262,2262956,1.87945,0.29209,-9.47625
2263,2263956,0.94092,-0.49799,-9.16740
2264,2264956,1.64242,0.21069,-9.76116
2265,2265956,1.23780,-0.28491,-9.20571
2266,2266956,2.14281,0.72065,-9.90721
2267,2267956,0.74699,-1.32878,-8.74602
2268,2268956,1.84354,1.26653,-10.23521
2269,2269956,2.24816,-0.81163,-9.11951
2270,2270956,1.12767,0.57221,-9.40921
2271,2271956,2.31519,0.95768,-9.90002
2272,2272956,1.58736,-0.76136,-8.99741
2273,2273956,1.52511,0.46208,-9.54568
2274,2274956,1.77650,-0.13647,-9.22486
2275,2275956,1.53708,0.28970,-9.64863
2276,2276956,1.56341,-0.04310,-9.17937
2277,2277956,1.99916,0.39504,-9.68215
2278,2278956,1.35751,-0.44532,-9.18176
2279,2279956,1.10612,-0.00718,-9.44752
2280,2280956,1.70228,0.02873,-9.57202
2281,2281956,1.27372,0.13886,-9.46667
2282,2282956,2.18351,0.00000,-9.42837
2283,2283956,0.46448,-0.72305,-9.34936
2284,2284956,2.66235,1.03190,-10.11311
2285,2285956,1.49398,-0.79248,-8.75081
2286,2286956,1.60890,1.46286,-10.07959
2287,2287956,2.06620,-0.38786,-9.14585
2288,2288956,1.35512,0.30406,-9.39485
2289,2289956,1.74058,-0.07661,-9.38766
2290,2290956,1.49159,-0.07901,-9.50977
2291,2291956,1.68552,0.41180,-9.48583
2292,2292956,1.67834,-0.19872,-9.40203
2293,2293956,1.97761,0.35195,-9.54329
2294,2294956,1.04148,-0.56743,-9.19613
2295,2295956,1.60172,0.16999,-9.81383
2296,2296956,1.33118,-0.26815,-9.23922
2297,2297956,2.07817,0.75657,-9.85932
2298,2298956,0.93134,-1.31681,-8.72208
2299,2299956,1.70946,1.23301,-10.19691
2300,2300956,2.41575,-0.59376,-9.14346
2301,2301956,1.07978,0.43574,-9.30147
2302,2302956,2.26252,1.13006,-10.05325
2303,2303956,1.63045,-0.88585,-8.97107
2304,2304956,1.52032,0.49081,-9.60793
2305,2305956,1.73819,-0.22505,-9.22486
2306,2306956,1.51314,0.15323,-9.68694
2307,2307956,1.58736,0.01197,-9.21768
2308,2308956,2.03986,0.31125,-9.68933
2309,2309956,1.46286,-0.37350,-9.20571
2310,2310956,1.10133,-0.04549,-9.46907
2311,2311956,1.73101,0.02155,-9.64145
2312,2312956,1.23780,0.10534,-9.35893
2313,2313956,2.20745,0.17478,-9.55526
2314,2314956,0.49560,-0.83797,-9.15064
2315,2315956,2.61926,1.11091,-10.17057
2316,2316956,1.60412,-0.81403,-8.74602
2317,2317956,1.51553,1.42455,-10.03649
2318,2318956,2.14520,-0.26097,-9.34457
2319,2319956,1.42216,0.11971,-9.43076
2320,2320956,1.64721,-0.00718,-9.33499
2321,2321956,1.52750,-0.05267,-9.46189
2322,2322956,1.69270,0.42617,-9.50977
2323,2323956,1.59214,-0.21548,-9.41879
2324,2324956,1.98479,0.45250,-9.52413
2325,2325956,1.14682,-0.47405,-9.12191
2326,2326956,1.53468,0.22984,-9.77553
2327,2327956,1.38145,-0.21787,-9.26077
2328,2328956,2.05422,0.66559,-9.95509
2329,2329956,1.05584,-1.31681,-8.73405
2330,2330956,1.52032,1.12527,-10.07720
2331,2331956,2.48039,-0.48842,-9.31105
2332,2332956,1.08218,0.27773,-9.24880
2333,2333956,2.20506,1.27611,-10.06522
2334,2334956,1.70946,-0.90261,-8.96629
2335,2335956,1.40540,0.50039,-9.52892
2336,2336956,1.75974,-0.23942,-9.28471
2337,2337956,1.46765,0.17238,-9.64145
2338,2338956,1.58975,0.09098,-9.23683
2339,2339956,2.05662,0.29928,-9.61751
2340,2340956,1.55144,-0.32082,-9.26077
2341,2341956,1.11091,-0.10534,-9.44034
2342,2342956,1.76692,0.09816,-9.73004
2343,2343956,1.15401,0.02873,-9.32781
2344,2344956,2.28886,0.35913,-9.59117
2345,2345956,0.38068,-1.04866,-9.09318
2346,2346956,2.56658,1.17316,-10.17057
2347,2347956,1.69270,-0.85473,-8.83460
2348,2348956,1.44370,1.27132,-10.00537
2349,2349956,2.14520,-0.08140,-9.29908
2350,2350956,1.41737,-0.00239,-9.31823
2351,2351956,1.64721,0.02873,-9.34218
2352,2352956,1.50595,-0.07422,-9.44513
2353,2353956,1.68791,0.37110,-9.58399
2354,2354956,1.60890,-0.27773,-9.39724
2355,2355956,1.98240,0.45729,-9.67257
2356,2356956,1.11330,-0.55785,-9.08839
2357,2357956,1.49877,0.13168,-9.69173
2358,2358956,1.46525,-0.22027,-9.32063
2359,2359956,1.87466,0.77333,-9.92875
2360,2360956,1.13006,-1.16598,-8.82263
2361,2361956,1.35751,0.94332,-10.02692
2362,2362956,2.56898,-0.31125,-9.39245
2363,2363956,1.02711,0.10774,-9.13867
2364,2364956,2.08056,1.33836,-10.07241
2365,2365956,1.71904,-0.89064,-8.97586
2366,2366956,1.32639,0.54588,-9.59357
2367,2367956,1.70946,-0.22984,-9.27274
2368,2368956,1.37906,0.16520,-9.66060
2369,2369956,1.37906,0.16520,-9.66060
2370,2370956,1.62087,0.18914,-9.24880
2371,2371956,1.94888,0.25618,-9.61751
2372,2372956,1.56820,-0.24421,-9.24880
2373,2373956,1.07739,-0.18196,-9.38048
2374,2374956,1.73340,0.08859,-9.68694
2375,2375956,1.19950,-0.05267,-9.33978
2376,2376956,2.38223,0.47405,-9.67018
2377,2377956,0.42377,-1.12288,-9.00938
2378,2378956,2.53307,1.30005,-10.31183
2379,2379956,1.75495,-0.87388,-8.81545
2380,2380956,1.41976,1.25935,-9.98382
2381,2381956,2.24576,0.03591,-9.41161
2382,2382956,1.42455,-0.12929,-9.21049
2383,2383956,1.67355,0.05986,-9.48343
2384,2384956,1.56820,-0.07422,-9.46428
2385,2385956,1.69270,0.39744,-9.53611
2386,2386956,1.66397,-0.26576,-9.27993
2387,2387956,2.10211,0.43096,-9.62708
2388,2388956,1.06063,-0.59616,-9.11473
2389,2389956,1.43652,0.11492,-9.71567
2390,2390956,1.47483,-0.23224,-9.30866
2391,2391956,1.73819,0.65362,-9.88326
2392,2392956,1.37427,-0.98641,-8.93037
2393,2393956,1.18992,0.66559,-9.84017
2394,2394956,2.57377,-0.04310,-9.50259
2395,2395956,1.15161,-0.13886,-9.00699
2396,2396956,2.02789,1.46286,-10.11311
2397,2397956,1.85311,-0.88346,-8.98783
2398,2398956,1.35272,0.52433,-9.50259
2399,2399956,1.79086,-0.16999,-9.26077
2400,2400956,1.49877,0.12689,-9.62230
2401,2401956,1.59693,0.21069,-9.25838
2402,2402956,1.90339,0.15562,-9.63906
2403,2403956,1.64482,-0.19872,-9.28950
2404,2404956,1.07260,-0.20830,-9.27514
2405,2405956,1.77171,0.14844,-9.70370
2406,2406956,1.16598,-0.02155,-9.24641
2407,2407956,2.37265,0.39265,-9.66300
2408,2408956,0.44293,-1.11330,-9.03332
2409,2409956,2.51152,1.25217,-10.27831
2410,2410956,1.77889,-0.92177,-8.76038
2411,2411956,1.38624,1.23541,-9.94073
2412,2412956,2.25294,0.10774,-9.51216
2413,2413956,1.36709,-0.18435,-9.30147
2414,2414956,1.61369,0.12210,-9.43794
2415,2415956,1.57060,-0.13647,-9.30866
2416,2416956,1.67115,0.38547,-9.53850
2417,2417956,1.62566,-0.19872,-9.34936
2418,2418956,2.05422,0.46208,-9.60075
2419,2419956,1.16598,-0.54348,-9.10994
2420,2420956,1.38385,0.09816,-9.72525
2421,2421956,1.45089,-0.18675,-9.24162
2422,2422956,1.73580,0.67756,-9.71806
2423,2423956,1.42694,-0.88346,-8.92558
2424,2424956,1.07021,0.53870,-9.82102
2425,2425956,2.62644,0.06225,-9.55287
2426,2426956,1.14682,-0.28491,-9.00220
2427,2427956,1.97043,1.47483,-10.16099
2428,2428956,1.94649,-0.85234,-8.94953
2429,2429956,1.38145,0.55545,-9.50259
2430,2430956,1.73340,-0.21548,-9.31823
2431,2431956,1.45807,0.06704,-9.66539
2432,2432956,1.69031,0.27533,-9.31823
2433,2433956,1.88663,0.13886,-9.61751
2434,2434956,1.64242,-0.14126,-9.27993
2435,2435956,1.01275,-0.22505,-9.31344
2436,2436956,1.75256,0.14844,-9.73482
2437,2437956,1.16837,-0.08380,-9.23204
2438,2438956,2.36547,0.58419,-9.68215
2439,2439956,0.49560,-1.31681,-8.85615
2440,2440956,2.38223,1.42216,-10.34056
2441,2441956,1.91776,-1.00556,-8.76757
2442,2442956,1.31681,1.15161,-9.87129
2443,2443956,2.28167,0.20830,-9.57202
2444,2444956,1.44370,-0.31125,-9.20331
2445,2445956,1.56820,0.16759,-9.43316
2446,2446956,1.59933,-0.16281,-9.34218
2447,2447956,1.68552,0.42377,-9.65342
2448,2448956,1.57060,-0.19632,-9.30626
2449,2449956,2.09493,0.50278,-9.63187
2450,2450956,1.18034,-0.55545,-9.06924
2451,2451956,1.37427,0.09577,-9.63187
2452,2452956,1.62327,-0.19872,-9.39006
2453,2453956,1.61130,0.52672,-9.80186
2454,2454956,1.58736,-0.84036,-9.03332
2455,2455956,0.96486,0.29928,-9.76595
2456,2456956,2.70784,0.21787,-9.67497
2457,2457956,1.24020,-0.32082,-8.90882
2458,2458956,1.86987,1.52271,-10.13226
2459,2459956,1.89621,-0.78769,-9.06684
2460,2460956,1.35512,0.53870,-9.55526
2461,2461956,1.78129,-0.19872,-9.32302
2462,2462956,1.45567,0.12929,-9.61511
2463,2463956,1.65679,0.28730,-9.31823
2464,2464956,1.82917,0.07661,-9.64624
2465,2465956,1.73101,-0.07422,-9.32542
2466,2466956,1.00078,-0.37110,-9.19613
2467,2467956,1.72383,0.19154,-9.68455
2468,2468956,1.15161,-0.17957,-9.31584
2469,2469956,2.34632,0.57940,-9.80186
2470,2470956,0.49560,-1.25456,-8.85615
2471,2471956,2.27689,1.40300,-10.24718
2472,2472956,1.92494,-0.91459,-8.83700
2473,2473956,1.20907,1.08936,-9.74919
2474,2474956,2.28167,0.41180,-9.58638
2475,2475956,1.44370,-0.42377,-9.04769
2476,2476956,1.60412,0.31125,-9.40203
2477,2477956,1.60412,-0.09577,-9.36133
2478,2478956,1.60172,0.33040,-9.65582
2479,2479956,1.56820,-0.20590,-9.24641
2480,2480956,2.08296,0.46687,-9.66779
2481,2481956,1.26893,-0.53630,-9.01896
2482,2482956,1.30723,0.03352,-9.53850
2483,2483956,1.61369,-0.12210,-9.39006
2484,2484956,1.54187,0.38786,-9.68933
2485,2485956,1.78607,-0.60334,-9.12909
2486,2486956,0.84036,0.05746,-9.57920
2487,2487956,2.75812,0.50518,-9.75877
2488,2488956,1.30723,-0.43096,-8.86573
2489,2489956,1.82678,1.48441,-10.18015
2490,2490956,1.96564,-0.68474,-8.99980
2491,2491956,1.38624,0.48363,-9.48822
2492,2492956,1.79805,-0.14605,-9.26556
2493,2493956,1.47243,0.03352,-9.57441
2494,2494956,1.71664,0.31125,-9.32063
2495,2495956,1.80044,0.01437,-9.57681
2496,2496956,1.77410,0.02873,-9.41640
2497,2497956,1.04387,-0.33519,-9.12430
2498,2498956,1.71904,0.25618,-9.68215
2499,2499956,1.18274,-0.19154,-9.20331
2500,2500956,2.27449,0.65841,-9.81144
2501,2501956,0.59855,-1.41018,-8.80587
2502,2502956,2.15718,1.42694,-10.33816
2503,2503956,2.13084,-0.96247,-8.94953
2504,2504956,1.18752,0.93853,-9.68215
2505,2505956,2.23379,0.62249,-9.69412
2506,2506956,1.45089,-0.61292,-9.08360
2507,2507956,1.55623,0.32322,-9.54808
2508,2508956,1.73101,-0.15083,-9.32302
2509,2509956,1.63524,0.39504,-9.69412
2510,2510956,1.57060,-0.11013,-9.29908
2511,2511956,2.02310,0.40223,-9.68455
2512,2512956,1.24738,-0.49799,-9.12430
2513,2513956,1.22104,0.03591,-9.56723
2514,2514956,1.66636,-0.08380,-9.46428
2515,2515956,1.43173,0.33279,-9.64145
2516,2516956,1.89621,-0.49321,-9.23204
2517,2517956,0.72305,-0.07183,-9.56005
2518,2518956,2.74136,0.59616,-9.88087
2519,2519956,1.32639,-0.54348,-8.86333
2520,2520956,1.70467,1.46286,-10.14902
2521,2521956,1.98000,-0.67995,-9.04051
2522,2522956,1.38145,0.43814,-9.49062
2523,2523956,1.72143,-0.11253,-9.33260
2524,2524956,1.43413,0.01915,-9.54329
2525,2525956,1.63524,0.34477,-9.34936
2526,2526956,1.70707,0.04070,-9.48104
2527,2527956,1.88184,0.13408,-9.43076
2528,2528956,0.99120,-0.48602,-9.17698
2529,2529956,1.67115,0.20111,-9.77792
2530,2530956,1.26893,-0.22745,-9.22965
2531,2531956,2.23379,0.70629,-9.84496
2532,2532956,0.63925,-1.45328,-8.75081
2533,2533956,1.98719,1.41018,-10.28310
2534,2534956,2.12845,-0.87628,-8.92798
2535,2535956,1.15879,0.77812,-9.54808
2536,2536956,2.28646,0.81403,-9.82102
2537,2537956,1.44610,-0.69671,-9.04051
2538,2538956,1.51074,0.43814,-9.60075
2539,2539956,1.65200,-0.19154,-9.23683
2540,2540956,1.58736,0.32322,-9.57441
2541,2541956,1.59693,-0.07661,-9.19613
2542,2542956,1.99916,0.39983,-9.66300
2543,2543956,1.30005,-0.51236,-9.08360
2544,2544956,1.22583,0.00239,-9.52653
2545,2545956,1.74298,-0.06225,-9.51695
2546,2546956,1.45328,0.34477,-9.55526
2547,2547956,2.03507,-0.22745,-9.29908
2548,2548956,0.64165,-0.33758,-9.41161
2549,2549956,2.75094,0.71347,-9.99819
2550,2550956,1.46765,-0.64404,-8.89207
2551,2551956,1.70228,1.44849,-10.08917
2552,2552956,2.03986,-0.54588,-9.07642
2553,2553956,1.40540,0.36152,-9.39485
2554,2554956,1.73101,-0.12929,-9.28232
2555,2555956,1.44610,-0.02394,-9.48104
2556,2556956,1.68791,0.33519,-9.40921
2557,2557956,1.75974,-0.10534,-9.49780
2558,2558956,1.91297,0.18196,-9.44991
2559,2559956,0.93613,-0.53391,-9.13388
2560,2560956,1.62327,0.19393,-9.72046
2561,2561956,1.23301,-0.21548,-9.20331
2562,2562956,2.21942,0.79248,-9.86172
2563,2563956,0.65601,-1.41497,-8.72926
2564,2564956,1.93930,1.45328,-10.27112
2565,2565956,2.22421,-0.85473,-8.93037
2566,2566956,1.13725,0.75417,-9.45949
2567,2567956,2.31280,0.82839,-9.84017
2568,2568956,1.49398,-0.77812,-8.99980
2569,2569956,1.50595,0.47405,-9.59596
2570,2570956,1.76213,-0.18675,-9.25838
2571,2571956,1.58257,0.28730,-9.63187
2572,2572956,1.60890,-0.08380,-9.25119
2573,2573956,2.03268,0.37589,-9.70370
2574,2574956,1.33118,-0.44532,-9.16500
2575,2575956,1.24738,-0.05746,-9.47864
2576,2576956,1.70228,-0.02873,-9.55765
2577,2577956,1.27372,0.28491,-9.53850
2578,2578956,2.04704,-0.16041,-9.30866
2579,2579956,0.60334,-0.43574,-9.41640
2580,2580956,2.73178,0.79009,-10.01495
2581,2581956,1.43652,-0.66798,-8.80587
2582,2582956,1.69509,1.49398,-10.08198
2583,2583956,2.03268,-0.54348,-9.06445
2584,2584956,1.40061,0.36631,-9.43076
2585,2585956,1.79565,-0.13168,-9.39485
2586,2586956,1.47243,-0.10056,-9.54329
2587,2587956,1.66158,0.33040,-9.43316
2588,2588956,1.71425,-0.09098,-9.57681
2589,2589956,1.91297,0.26336,-9.45470
2590,2590956,1.01754,-0.45969,-9.16022
2591,2591956,1.65918,0.18435,-9.80186
2592,2592956,1.21865,-0.25618,-9.33978
2593,2593956,2.25294,0.70629,-9.98622
2594,2594956,0.76614,-1.35033,-8.76038
2595,2595956,1.97522,1.44849,-10.24958
2596,2596956,2.22421,-0.80445,-8.97586
2597,2597956,1.06303,0.78530,-9.45710
2598,2598956,2.29125,0.85473,-9.87848
2599,2599956,1.52989,-0.73263,-8.97586
2600,2600956,1.52989,0.47166,-9.54089
2601,2601956,1.73101,-0.15802,-9.26795
2602,2602956,1.58017,0.30885,-9.70609
2603,2603956,1.55144,-0.08859,-9.23444
2604,2604956,2.03747,0.38786,-9.67736
2605,2605956,1.31921,-0.39744,-9.20331
2606,2606956,1.21386,0.01915,-9.45710
2607,2607956,1.75974,-0.01915,-9.52174
2608,2608956,1.40300,0.26336,-9.56723
2609,2609956,2.04465,-0.10774,-9.36372
2610,2610956,0.54827,-0.45729,-9.42837
2611,2611956,2.73657,0.78530,-9.97424
2612,2612956,1.43652,-0.71826,-8.79151
2613,2613956,1.67115,1.42934,-10.14902
2614,2614956,1.97522,-0.49321,-9.10994
2615,2615956,1.39103,0.36392,-9.49780
2616,2616956,1.77171,-0.08859,-9.36612
2617,2617956,1.49638,0.02634,-9.57202
2618,2618956,1.77410,0.38547,-9.45470
2619,2619956,1.77410,-0.05986,-9.52413
2620,2620956,1.91057,0.25379,-9.46189
2621,2621956,1.02472,-0.50039,-9.21528
2622,2622956,1.65439,0.22984,-9.74919
2623,2623956,1.27372,-0.22745,-9.19613
2624,2624956,2.21224,0.79727,-9.88326
2625,2625956,0.78051,-1.40779,-8.71968
2626,2626956,1.93451,1.31442,-10.33337
2627,2627956,2.25294,-0.78051,-9.02135
2628,2628956,1.10612,0.72305,-9.47625
2629,2629956,2.29365,0.91219,-9.92397
2630,2630956,1.48680,-0.76136,-8.99741
2631,2631956,1.56341,0.46926,-9.54568
2632,2632956,1.75256,-0.14844,-9.18416
2633,2633956,1.57299,0.29209,-9.68694
2634,2634956,1.54426,-0.08619,-9.25359
2635,2635956,2.02549,0.37589,-9.74440
2636,2636956,1.37188,-0.42856,-9.21528
2637,2637956,1.19231,-0.05267,-9.43794
2638,2638956,1.69270,0.00239,-9.55047
2639,2639956,1.38385,0.33040,-9.58399
2640,2640956,2.09493,-0.26576,-9.35893
2641,2641956,0.50757,-0.30167,-9.42837
2642,2642956,2.74376,0.67038,-9.95030
2643,2643956,1.36948,-0.65362,-8.76517
2644,2644956,1.67355,1.48201,-10.12987
2645,2645956,2.01592,-0.54348,-9.09078
2646,2646956,1.38145,0.37828,-9.41161
2647,2647956,1.82199,-0.13168,-9.29429
2648,2648956,1.52511,-0.02873,-9.47625
2649,2649956,1.69031,0.33998,-9.43555
2650,2650956,1.73819,-0.15802,-9.54568
2651,2651956,1.94649,0.27533,-9.51216
2652,2652956,1.02951,-0.50518,-9.19373
2653,2653956,1.61369,0.17717,-9.81862
2654,2654956,1.22823,-0.27533,-9.28232
2655,2655956,2.16436,0.67995,-9.91678
2656,2656956,0.78530,-1.35033,-8.78672
2657,2657956,1.95127,1.26893,-10.25437
2658,2658956,2.29843,-0.75896,-9.05727
2659,2659956,1.15640,0.74460,-9.47386
2660,2660956,2.30322,0.92656,-9.93115
2661,2661956,1.52989,-0.79727,-9.02135
2662,2662956,1.57299,0.45011,-9.61751
2663,2663956,1.75256,-0.18435,-9.27993
2664,2664956,1.58257,0.26336,-9.70609
2665,2665956,1.65439,0.02873,-9.19852
2666,2666956,2.10450,0.40462,-9.66539
2667,2667956,1.41258,-0.43814,-9.16500
2668,2668956,1.14922,-0.08619,-9.50259
2669,2669956,1.78129,-0.04549,-9.60554
2670,2670956,1.37188,0.17478,-9.53611
2671,2671956,2.10450,-0.05028,-9.45470
2672,2672956,0.52672,-0.66319,-9.32542
2673,2673956,2.69827,0.87388,-9.99100
2674,2674956,1.49159,-0.76854,-8.68138
2675,2675956,1.64721,1.45807,-10.03649
2676,2676956,2.05901,-0.48123,-9.08121
2677,2677956,1.36230,0.38068,-9.38288
2678,2678956,1.74298,-0.05028,-9.31105
2679,2679956,1.53947,-0.09337,-9.48583
2680,2680956,1.67834,0.41420,-9.40442
2681,2681956,1.66158,-0.14126,-9.38288
2682,2682956,1.94170,0.31125,-9.44752
2683,2683956,1.04387,-0.50996,-9.09078
2684,2684956,1.58975,0.20111,-9.71328
2685,2685956,1.26174,-0.28252,-9.28232
2686,2686956,2.12366,0.74939,-9.92636
2687,2687956,0.78769,-1.38624,-8.74602
2688,2688956,1.74058,1.27611,-10.20888
2689,2689956,2.24097,-0.76854,-9.07881
2690,2690956,0.99120,0.53870,-9.35893
2691,2691956,2.19309,0.99359,-9.93833
2692,2692956,1.58257,-0.78769,-8.96150
2693,2693956,1.52271,0.47405,-9.62469
2694,2694956,1.73580,-0.16759,-9.27753
2695,2695956,1.53468,0.23942,-9.69412
2696,2696956,1.60172,0.06704,-9.23683
2697,2697956,2.03028,0.38547,-9.62230
2698,2698956,1.35512,-0.40941,-9.16979
2699,2699956,1.12288,-0.03112,-9.43555
2700,2700956,1.79805,0.07183,-9.53611
2701,2701956,1.33118,0.22505,-9.44513
2702,2702956,2.19548,0.14365,-9.42118
2703,2703956,0.47405,-0.67516,-9.31823
2704,2704956,2.63123,1.01514,-10.09874
2705,2705956,1.50595,-0.63925,-8.72926
2706,2706956,1.60172,1.34315,-10.05565
2707,2707956,2.10450,-0.34955,-9.18416
2708,2708956,1.44610,0.22505,-9.41161
2709,2709956,1.70946,-0.08859,-9.38527
2710,2710956,1.47004,-0.10534,-9.50498
2711,2711956,1.65918,0.40223,-9.52174
2712,2712956,1.66636,-0.16281,-9.46907
2713,2713956,1.93930,0.35195,-9.52653
2714,2714956,1.01035,-0.54588,-9.17219
2715,2715956,1.52750,0.22984,-9.84735
2716,2716956,1.35272,-0.23942,-9.35654
2717,2717956,2.09493,0.74220,-9.91918
2718,2718956,0.91219,-1.33118,-8.74123
2719,2719956,1.68312,1.16837,-10.15381
2720,2720956,2.36308,-0.72784,-9.15303
2721,2721956,1.10852,0.45250,-9.32781
2722,2722956,2.24576,1.10133,-9.93115
2723,2723956,1.62327,-0.88585,-8.95910
2724,2724956,1.47962,0.45729,-9.59117
2725,2725956,1.73101,-0.16999,-9.19373
2726,2726956,1.47722,0.23224,-9.65821
2727,2727956,1.62087,0.05746,-9.28232
2728,2728956,2.00634,0.36871,-9.77553
2729,2729956,1.43173,-0.35674,-9.24880
2730,2730956,1.08457,-0.10774,-9.45470
2731,2731956,1.73340,0.06464,-9.70131
2732,2732956,1.19471,0.09337,-9.40921
2733,2733956,2.28407,0.21069,-9.51216
2734,2734956,0.44053,-0.85234,-9.20810
2735,2735956,2.60968,1.13485,-10.11790
2736,2736956,1.64482,-0.79487,-8.73884
2737,2737956,1.58736,1.27850,-10.02931
2738,2738956,2.15239,-0.26097,-9.16022
2739,2739956,1.43173,0.15083,-9.34936
2740,2740956,1.73101,-0.01676,-9.39485
2741,2741956,1.52271,0.00718,-9.54808
2742,2742956,1.68791,0.45011,-9.60075
2743,2743956,1.62566,-0.22745,-9.43794
2744,2744956,1.98958,0.39025,-9.56962
2745,2745956,1.06781,-0.53151,-9.12670
2746,2746956,1.51074,0.20830,-9.73004
2747,2747956,1.38864,-0.17717,-9.27035
2748,2748956,1.96564,0.79248,-9.87608
2749,2749956,1.04866,-1.26893,-8.71489
2750,2750956,1.58496,1.13246,-10.11071
2751,2751956,2.46603,-0.47405,-9.24880
2752,2752956,1.04148,0.25857,-9.19852
2753,2753956,2.16675,1.22823,-10.02213
2754,2754956,1.68073,-0.95050,-8.94953
2755,2755956,1.42455,0.51715,-9.59357
2756,2756956,1.80523,-0.15323,-9.24162
2757,2757956,1.50835,0.21787,-9.65582
2758,2758956,1.57299,0.13647,-9.24880
2759,2759956,1.98958,0.33519,-9.69173
2760,2760956,1.55384,-0.35434,-9.22007
2761,2761956,1.12288,-0.14126,-9.31105
2762,2762956,1.76692,0.04070,-9.65342
2763,2763956,1.28569,0.09098,-9.41879
2764,2764956,2.31040,0.32082,-9.63427
2765,2765956,0.47645,-0.97683,-9.20092
2766,2766956,2.54743,1.15879,-10.13944
2767,2767956,1.64721,-0.83079,-8.71489
2768,2768956,1.42455,1.34315,-9.90721
2769,2769956,2.16436,-0.13647,-9.29669
2770,2770956,1.43173,0.05986,-9.37569
2771,2771956,1.66636,0.06225,-9.36612
2772,2772956,1.53468,-0.09577,-9.41400
2773,2773956,1.68073,0.39504,-9.58638
2774,2774956,1.65918,-0.21548,-9.36612
2775,2775956,2.04225,0.43335,-9.61751
2776,2776956,1.08697,-0.54109,-9.11951
2777,2777956,1.48441,0.14365,-9.76595
2778,2778956,1.38864,-0.27294,-9.30387
2779,2779956,1.95846,0.72544,-9.90721
2780,2780956,1.11091,-1.18992,-8.83700
2781,2781956,1.36948,0.91459,-10.04607
2782,2782956,2.53067,-0.39504,-9.34696
2783,2783956,1.08457,0.13408,-9.05727
2784,2784956,2.15478,1.32639,-10.03170
2785,2785956,1.75495,-0.92656,-8.93277
2786,2786956,1.41976,0.51954,-9.60075
2787,2787956,1.79565,-0.16999,-9.24880
2788,2788956,1.49877,0.17478,-9.58160
2789,2789956,1.57538,0.15323,-9.23683
2790,2790956,1.91536,0.29449,-9.68694
2791,2791956,1.50356,-0.24660,-9.30147
2792,2792956,1.05345,-0.13168,-9.41879
2793,2793956,1.79326,0.06943,-9.67976
2794,2794956,1.18513,-0.02873,-9.40203
2795,2795956,2.26970,0.36871,-9.61990
2796,2796956,0.44532,-0.97444,-9.03811
2797,2797956,2.51870,1.23780,-10.19691
2798,2798956,1.74058,-0.84755,-8.81306
2799,2799956,1.40779,1.29287,-9.99579
2800,2800956,2.15478,-0.00479,-9.37091
2801,2801956,1.45807,-0.02155,-9.25598
2802,2802956,1.64242,0.06943,-9.40203
2803,2803956,1.59693,-0.08619,-9.40682
2804,2804956,1.69270,0.44532,-9.55287
2805,2805956,1.66158,-0.28012,-9.36372
2806,2806956,2.07577,0.49799,-9.61033
2807,2807956,1.13964,-0.54348,-9.12670
2808,2808956,1.50116,0.12689,-9.69173
2809,2809956,1.49638,-0.17717,-9.30626
2810,2810956,1.91536,0.73023,-9.90481
2811,2811956,1.22104,-1.08218,-8.82263
2812,2812956,1.32399,0.85473,-9.95030
2813,2813956,2.60250,-0.24900,-9.36612
2814,2814956,1.07260,0.04070,-9.12430
2815,2815956,2.01592,1.36469,-10.07001
2816,2816956,1.77889,-0.89783,-8.94713
2817,2817956,1.39103,0.50278,-9.58878
2818,2818956,1.82917,-0.20590,-9.31584
2819,2819956,1.52989,0.16520,-9.64863
2820,2820956,1.64960,0.16281,-9.26317
2821,2821956,1.91536,0.22984,-9.70849
2822,2822956,1.61130,-0.16520,-9.32781
2823,2823956,1.12527,-0.18914,-9.38048
2824,2824956,1.76213,0.09098,-9.63666
2825,2825956,1.19231,-0.05746,-9.28471
2826,2826956,2.33914,0.50757,-9.70131
2827,2827956,0.43574,-1.14682,-9.04529
2828,2828956,2.48518,1.31921,-10.19930
2829,2829956,1.80523,-0.94571,-8.72926
2830,2830956,1.35033,1.16837,-9.96706
2831,2831956,2.24576,0.08859,-9.43076
2832,2832956,1.48680,-0.11971,-9.20810
2833,2833956,1.64721,0.09816,-9.29669
2834,2834956,1.52750,-0.10295,-9.42597
2835,2835956,1.66397,0.45729,-9.67736
2836,2836956,1.60890,-0.22505,-9.32063
2837,2837956,2.12366,0.47166,-9.59596
2838,2838956,1.12288,-0.57940,-9.05008
2839,2839956,1.34794,0.07422,-9.67497
2840,2840956,1.42455,-0.24421,-9.34457
2841,2841956,1.81959,0.72065,-9.87608
2842,2842956,1.32399,-1.08697,-8.83939
2843,2843956,1.24020,0.85234,-9.99100
2844,2844956,2.54982,-0.24421,-9.50737
2845,2845956,1.05345,0.02873,-9.06924
2846,2846956,2.08296,1.42934,-10.11071
2847,2847956,1.77410,-0.84036,-8.91122
2848,2848956,1.35512,0.45969,-9.56005
2849,2849956,1.77410,-0.21787,-9.33739
2850,2850956,1.42934,0.07901,-9.57681
2851,2851956,1.65439,0.16759,-9.26317
2852,2852956,1.94170,0.15802,-9.63427
2853,2853956,1.63045,-0.21308,-9.32542
2854,2854956,1.01993,-0.15802,-9.36133
2855,2855956,1.81241,0.17238,-9.72285
2856,2856956,1.19710,-0.08619,-9.33499
2857,2857956,2.30083,0.48842,-9.75158
2858,2858956,0.35913,-1.20189,-9.03332
2859,2859956,2.40857,1.34075,-10.22564
2860,2860956,1.81002,-0.88825,-8.77475
2861,2861956,1.35272,1.24977,-9.92636
2862,2862956,2.20506,0.16281,-9.43076
2863,2863956,1.42455,-0.10534,-9.20810
2864,2864956,1.60412,0.15323,-9.40921
2865,2865956,1.59214,-0.07661,-9.39724
2866,2866956,1.70467,0.46448,-9.60075
2867,2867956,1.59454,-0.23942,-9.30147
2868,2868956,2.01352,0.52672,-9.63187
2869,2869956,1.19950,-0.57700,-9.11233
2870,2870956,1.44370,0.13886,-9.63427
2871,2871956,1.51314,-0.23224,-9.31105
2872,2872956,1.73819,0.59855,-9.80904
2873,2873956,1.32878,-0.86670,-8.92319
2874,2874956,1.19710,0.63207,-9.85214
2875,2875956,2.66475,0.07661,-9.56005
2876,2876956,1.13246,-0.14605,-9.00459
2877,2877956,1.98479,1.47004,-10.13705
2878,2878956,1.88903,-0.82839,-8.97586
2879,2879956,1.35991,0.55545,-9.51695
2880,2880956,1.77889,-0.19154,-9.30387
2881,2881956,1.48441,0.11013,-9.59596
2882,2882956,1.63524,0.17957,-9.30147
2883,2883956,1.95846,0.14605,-9.61990
2884,2884956,1.67115,-0.15323,-9.28711
2885,2885956,0.99120,-0.27054,-9.30387
2886,2886956,1.72622,0.11492,-9.73482
2887,2887956,1.14682,-0.11971,-9.34696
2888,2888956,2.37026,0.55067,-9.75398
2889,2889956,0.41659,-1.31442,-8.93756
2890,2890956,2.40857,1.40779,-10.29507
2891,2891956,1.82438,-1.01035,-8.72447
2892,2892956,1.33596,1.21625,-9.90242
2893,2893956,2.25294,0.11492,-9.57920
2894,2894956,1.39582,-0.24421,-9.21289
2895,2895956,1.63763,0.21308,-9.43316
2896,2896956,1.59214,-0.10295,-9.32302
2897,2897956,1.61130,0.41180,-9.60793
2898,2898956,1.57299,-0.19154,-9.40203
2899,2899956,1.99198,0.47166,-9.71567
2900,2900956,1.09894,-0.54588,-9.17698
2901,2901956,1.37427,0.16520,-9.65582
2902,2902956,1.56581,-0.17957,-9.32781
2903,2903956,1.76932,0.60573,-9.86172
2904,2904956,1.45567,-0.97205,-8.92319
2905,2905956,1.11091,0.46448,-9.76834
2906,2906956,2.67193,0.10534,-9.56005
2907,2907956,1.13485,-0.27294,-8.95431
2908,2908956,1.98240,1.48919,-10.13944
2909,2909956,1.92015,-0.86910,-9.10275
2910,2910956,1.41018,0.47884,-9.57920
2911,2911956,1.77650,-0.19632,-9.31105
2912,2912956,1.46046,0.05986,-9.59357
2913,2913956,1.66636,0.23942,-9.22725
2914,2914956,1.93691,0.13886,-9.61033
2915,2915956,1.71664,-0.10534,-9.33978
2916,2916956,1.02951,-0.24181,-9.26795
2917,2917956,1.70946,0.09098,-9.68455
2918,2918956,1.13485,-0.13168,-9.33978
2919,2919956,2.32477,0.46926,-9.73004
2920,2920956,0.43096,-1.24738,-8.88009
2921,2921956,2.37265,1.40540,-10.30943
2922,2922956,1.86987,-0.92895,-8.77475
2923,2923956,1.29766,1.18992,-9.77313
2924,2924956,2.26252,0.24660,-9.53132
2925,2925956,1.43652,-0.32801,-9.22725
2926,2926956,1.63763,0.21069,-9.47386
2927,2927956,1.59933,-0.08859,-9.34218
2928,2928956,1.64242,0.35913,-9.66539
2929,2929956,1.53229,-0.24900,-9.30866
2930,2930956,2.05422,0.46687,-9.66779
2931,2931956,1.23780,-0.50278,-9.05966
2932,2932956,1.36948,0.09816,-9.63666
2933,2933956,1.59693,-0.22505,-9.34696
2934,2934956,1.66876,0.59616,-9.81144
2935,2935956,1.58496,-0.80206,-8.98065
2936,2936956,1.03908,0.41659,-9.74201
2937,2937956,2.71742,0.17957,-9.64863
2938,2938956,1.17555,-0.25618,-8.95910
2939,2939956,1.86508,1.50595,-10.15381
2940,2940956,1.90818,-0.82839,-9.00220
2941,2941956,1.45089,0.51954,-9.50977
2942,2942956,1.80044,-0.17478,-9.27274
2943,2943956,1.44849,0.06943,-9.61033
2944,2944956,1.64960,0.24181,-9.33260
2945,2945956,1.83635,0.10774,-9.58160
2946,2946956,1.74777,-0.01197,-9.34218
2947,2947956,1.02951,-0.36152,-9.23444
2948,2948956,1.72143,0.12450,-9.67976
2949,2949956,1.16837,-0.24181,-9.18655
2950,2950956,2.33914,0.69671,-9.83778
2951,2951956,0.46208,-1.39103,-8.96389
2952,2952956,2.25055,1.47483,-10.31183
2953,2953956,2.02549,-0.93374,-8.88488
2954,2954956,1.32878,0.96726,-9.78510
2955,2955956,2.26491,0.43574,-9.63187
2956,2956956,1.38624,-0.37350,-9.16500
2957,2957956,1.60172,0.31364,-9.50019
2958,2958956,1.67834,-0.17238,-9.36851
2959,2959956,1.65439,0.40941,-9.64145
2960,2960956,1.54665,-0.18435,-9.28232
2961,2961956,1.98479,0.47884,-9.66779
2962,2962956,1.14443,-0.48363,-9.14106
2963,2963956,1.30723,0.13168,-9.57441
2964,2964956,1.64242,-0.18196,-9.41400
2965,2965956,1.63285,0.49081,-9.73482
2966,2966956,1.60412,-0.77572,-8.99741
2967,2967956,0.88585,0.26576,-9.71567
2968,2968956,2.70784,0.25139,-9.70849
2969,2969956,1.20428,-0.37350,-8.95192
2970,2970956,1.86029,1.46525,-10.11790
2971,2971956,1.88903,-0.77333,-8.95431
2972,2972956,1.41497,0.57221,-9.53611
2973,2973956,1.84114,-0.17238,-9.29429
2974,2974956,1.47483,0.02394,-9.57920
2975,2975956,1.69270,0.31364,-9.28711
2976,2976956,1.85311,0.05028,-9.66300
2977,2977956,1.77410,0.04549,-9.36612
2978,2978956,0.97444,-0.30885,-9.25598
2979,2979956,1.73101,0.16041,-9.67976
2980,2980956,1.14682,-0.20111,-9.27035
2981,2981956,2.31519,0.71108,-9.85693
2982,2982956,0.58179,-1.32399,-8.87291
2983,2983956,2.15478,1.34315,-10.19930
2984,2984956,2.07577,-0.87149,-8.89207
2985,2985956,1.25696,0.90261,-9.73004
2986,2986956,2.25534,0.57461,-9.66300
2987,2987956,1.47962,-0.50996,-9.07642
2988,2988956,1.56820,0.32082,-9.42118
2989,2989956,1.66397,-0.08140,-9.28232
2990,2990956,1.64960,0.37589,-9.71088
2991,2991956,1.59454,-0.22984,-9.30387
2992,2992956,2.09014,0.41659,-9.67018
2993,2993956,1.27132,-0.52912,-9.11473
2994,2994956,1.29047,0.02873,-9.65342
2995,2995956,1.67594,-0.16281,-9.49301
2996,2996956,1.56581,0.49799,-9.80426
2997,2997956,1.77410,-0.71347,-9.15303
2998,2998956,0.83797,0.11732,-9.73482
2999,2999956,2.79164,0.37828,-9.83059
3000,3000956,1.20428,-0.50039,-8.88488
3001,3001956,1.83396,1.48680,-10.16578
3002,3002956,1.94409,-0.75178,-9.00699
3003,3003956,1.38624,0.46687,-9.51935
3004,3004956,1.80044,-0.20111,-9.25119
3005,3005956,1.48441,0.05986,-9.55765
3006,3006956,1.72383,0.31364,-9.35415
3007,3007956,1.78129,0.00479,-9.53611
3008,3008956,1.76692,0.09098,-9.34218
3009,3009956,0.96486,-0.36631,-9.19373
3010,3010956,1.68552,0.10534,-9.78989
3011,3011956,1.19231,-0.24900,-9.24641
3012,3012956,2.28886,0.73263,-9.75398
3013,3013956,0.67038,-1.37667,-8.86333
3014,3014956,2.05901,1.34794,-10.27112
3015,3015956,2.09732,-0.75178,-8.88249
3016,3016956,1.17076,0.81163,-9.53132
3017,3017956,2.26970,0.67038,-9.72046
3018,3018956,1.50835,-0.67277,-9.11233
3019,3019956,1.54905,0.34477,-9.55765
3020,3020956,1.64960,-0.11492,-9.35893
3021,3021956,1.56581,0.33758,-9.64145
3022,3022956,1.56820,-0.13886,-9.20092
3023,3023956,2.05183,0.45490,-9.76834
3024,3024956,1.29526,-0.46687,-9.15303
3025,3025956,1.20428,0.05028,-9.46907
3026,3026956,1.71425,-0.01915,-9.44273
3027,3027956,1.49877,0.34716,-9.64624
3028,3028956,1.88424,-0.37110,-9.20331
3029,3029956,0.61292,-0.16281,-9.42597
3030,3030956,2.76770,0.69432,-9.96227
3031,3031956,1.38385,-0.52433,-8.78672
3032,3032956,1.72383,1.44131,-10.06762
3033,3033956,2.01352,-0.55306,-9.03572
3034,3034956,1.31202,0.38547,-9.49062
3035,3035956,1.75495,-0.17957,-9.32542
3036,3036956,1.44610,-0.03591,-9.55526
3037,3037956,1.67115,0.29209,-9.41879
3038,3038956,1.71664,-0.05507,-9.59596
3039,3039956,1.89381,0.25379,-9.46907
3040,3040956,1.00796,-0.47645,-9.17219
3041,3041956,1.68312,0.17478,-9.72046
3042,3042956,1.26893,-0.29688,-9.25598
3043,3043956,2.23379,0.78051,-9.87369
3044,3044956,0.82121,-1.38145,-8.76278
3045,3045956,2.00155,1.32639,-10.26155
3046,3046956,2.22182,-0.72784,-9.09078
3047,3047956,1.12288,0.65122,-9.54089
3048,3048956,2.23858,0.88346,-9.90481
3049,3049956,1.51553,-0.75178,-9.05487
3050,3050956,1.48919,0.41420,-9.55047
3051,3051956,1.62806,-0.13647,-9.24641
3052,3052956,1.50595,0.33519,-9.59117
3053,3053956,1.56341,-0.08380,-9.17219
3054,3054956,2.05422,0.35674,-9.72285
3055,3055956,1.33596,-0.48842,-9.19373
3056,3056956,1.23301,-0.01437,-9.48104
3057,3057956,1.72861,0.00000,-9.43555
3058,3058956,1.35272,0.25139,-9.54568
3059,3059956,2.05183,-0.10534,-9.34457
3060,3060956,0.48842,-0.48602,-9.37091
3061,3061956,2.73657,0.79727,-9.97664
3062,3062956,1.42934,-0.61052,-8.79151
3063,3063956,1.54665,1.42455,-10.23282
3064,3064956,2.00634,-0.52912,-9.17219
3065,3065956,1.40300,0.36871,-9.47146
3066,3066956,1.75016,-0.05267,-9.35415
3067,3067956,1.47004,0.00718,-9.47864
3068,3068956,1.67594,0.40701,-9.41879
3069,3069956,1.70228,-0.11492,-9.49301
3070,3070956,1.89381,0.24181,-9.50498
3071,3071956,1.01754,-0.41420,-9.16979
3072,3072956,1.68552,0.17717,-9.78271
3073,3073956,1.25696,-0.26815,-9.25359
3074,3074956,2.16675,0.83079,-9.89284
3075,3075956,0.81642,-1.37667,-8.73884
3076,3076956,1.89860,1.35033,-10.19691
3077,3077956,2.31998,-0.72544,-9.15543
3078,3078956,1.13964,0.58419,-9.46189
3079,3079956,2.25055,0.99599,-9.91678
3080,3080956,1.56102,-0.84515,-8.97826
3081,3081956,1.51553,0.39025,-9.51935
3082,3082956,1.72143,-0.21787,-9.28950
3083,3083956,1.52271,0.24660,-9.68455
3084,3084956,1.56820,-0.01915,-9.25119
3085,3085956,2.05901,0.39265,-9.66779
3086,3086956,1.35033,-0.42138,-9.13388
3087,3087956,1.17316,0.00479,-9.43555
3088,3088956,1.69509,-0.01437,-9.54329
3089,3089956,1.35272,0.26576,-9.51695
3090,3090956,2.13084,-0.07183,-9.29669
3091,3091956,0.51475,-0.54348,-9.29190
3092,3092956,2.67672,0.89783,-10.03170
3093,3093956,1.38145,-0.68474,-8.77236
3094,3094956,1.60651,1.43652,-10.11311
3095,3095956,2.05183,-0.44772,-9.17219
3096,3096956,1.42934,0.28491,-9.51935
3097,3097956,1.78607,-0.15083,-9.29669
3098,3098956,1.46525,-0.08859,-9.46428
3099,3099956,1.63285,0.32801,-9.46907
3100,3100956,1.65679,-0.09098,-9.50259
3101,3101956,1.92015,0.31603,-9.44273
3102,3102956,0.97205,-0.47166,-9.16979
3103,3103956,1.59933,0.16520,-9.74201
3104,3104956,1.29287,-0.26815,-9.20810
3105,3105956,2.13084,0.79966,-9.88087
3106,3106956,0.84994,-1.43413,-8.75799
3107,3107956,1.80283,1.29526,-10.25437
3108,3108956,2.33435,-0.71587,-9.13388
3109,3109956,1.10133,0.50757,-9.45710
3110,3110956,2.22900,1.05584,-9.99579
3111,3111956,1.56581,-0.80445,-8.96629
3112,3112956,1.44849,0.46926,-9.50019
3113,3113956,1.71185,-0.18196,-9.22007
3114,3114956,1.56341,0.28491,-9.59117
3115,3115956,1.60412,-0.00718,-9.23922
3116,3116956,2.01831,0.41899,-9.74201
3117,3117956,1.35033,-0.41420,-9.19852
3118,3118956,1.11809,0.01197,-9.53611
3119,3119956,1.70946,0.00479,-9.59357
3120,3120956,1.30723,0.15562,-9.57920
3121,3121956,2.11169,-0.02155,-9.44991
3122,3122956,0.41659,-0.57700,-9.30626
3123,3123956,2.72700,0.98881,-10.12987
3124,3124956,1.51553,-0.71108,-8.84179
3125,3125956,1.62087,1.48201,-10.14663
3126,3126956,2.05662,-0.44293,-9.15543
3127,3127956,1.35751,0.29209,-9.40921
3128,3128956,1.73819,-0.10534,-9.28950
3129,3129956,1.50356,-0.05267,-9.50977
3130,3130956,1.64003,0.36392,-9.50977
3131,3131956,1.65679,-0.11971,-9.52653
3132,3132956,1.99198,0.35195,-9.54329
3133,3133956,1.04148,-0.48842,-9.15782
3134,3134956,1.57538,0.23224,-9.79228
3135,3135956,1.30005,-0.30406,-9.21049
3136,3136956,2.15957,0.78769,-9.88805
3137,3137956,0.97205,-1.34794,-8.80587
3138,3138956,1.72861,1.19231,-10.15620
3139,3139956,2.29125,-0.61531,-9.10275
3140,3140956,1.03669,0.46208,-9.31584
3141,3141956,2.18351,1.14443,-10.00776
3142,3142956,1.54426,-0.80685,-8.98544
3143,3143956,1.45328,0.56503,-9.56484
3144,3144956,1.72383,-0.21787,-9.28232
3145,3145956,1.54665,0.24900,-9.72764
3146,3146956,1.58017,0.03831,-9.18895
3147,3147956,2.05901,0.30646,-9.68455
3148,3148956,1.39343,-0.44772,-9.22965
3149,3149956,1.13964,-0.08619,-9.45231
3150,3150956,1.74298,-0.00479,-9.60075
3151,3151956,1.31921,0.17957,-9.56005
3152,3152956,2.18830,0.01197,-9.49540
3153,3153956,0.48123,-0.64165,-9.38527
3154,3154956,2.78685,0.91937,-10.13944
3155,3155956,1.51553,-0.74699,-8.79151
3156,3156956,1.65918,1.41018,-10.08917
3157,3157956,2.08774,-0.40462,-9.09078
3158,3158956,1.39103,0.22984,-9.36612
3159,3159956,1.75016,-0.05028,-9.39006
3160,3160956,1.59933,-0.09337,-9.50737
3161,3161956,1.73101,0.39025,-9.54089
3162,3162956,1.63524,-0.18675,-9.51695
3163,3163956,1.98240,0.32082,-9.55526
3164,3164956,1.11809,-0.50757,-9.18176
3165,3165956,1.62566,0.19632,-9.72525
3166,3166956,1.40061,-0.26576,-9.24162
3167,3167956,2.08535,0.82121,-9.93115
3168,3168956,0.98881,-1.32399,-8.75560
